,t,x,y,z,qx,qy,qz,qw,yaw,pitch,roll,vx,vy,vz,wx,wy,wz,ros_timestamp,x_poses,y_poses,z_poses,qx_poses,qy_poses,qz_poses,qw_poses,yaw_poses,pitch_poses,roll_poses,m1_thrust,m2_thrust,m3_thrust,m4_thrust,m1_erpm,m2_erpm,m3_erpm,m4_erpm,ros_timestamp_motors,thrust,torque_roll,torque_pitch,torch_yaw,ax,ay,az,ros_timestamp_image_accel,x_setpoint,y_setpoint,z_setpoint,qx_setpoint,qy_setpoint,qz_setpoint,qw_setpoint,yaw_setpoint,pitch_setpoint,roll_setpoint,vx_setpoint,vy_setpoint,vz_setpoint,wx_setpoint,wy_setpoint,wz_setpoint,ros_timestamp_setpoint,Vbat,can_be_armed,is_armed,auto_arm,can_fly,is_flying,is_tumbled,is_locked
0,0.0,0.042,0.003,0.38,-0.009686394594609737,-0.0027675412129610777,-0.0013837706064805388,0.9999483227729797,-0.0027138283,-0.005561633,-0.019365638,-0.015,0.033,0.652,0.163,0.099,0.002,6.176424503326416,0.04329213127493858,0.0036535700783133507,0.374517023563385,,,,,,,,0.5411612115663386,0.4839093614099336,0.48540474555580987,0.534050507362478,95200.0,96200.0,98000.0,95200.0,6.2015461921691895,0.16096742198825056,-0.02835126268406195,-0.0005645838101777677,0.16096742198825056,0.003,0.101,9.43319,6.176424503326416,0.037,0.018,0.289,0.0,0.0,-0.0013837706064805388,0.9999990463256836,-0.0027675421,0.0,0.0,0.0,0.0,0.656,0.0,0.0,0.005,6.176424503326416,3.953000068664551,False,True,False,True,True,False,False
1,0.01,0.042,0.003,0.38,-0.009686394594609737,-0.0027675412129610777,-0.0013837706064805388,0.9999483227729797,-0.0027138283,-0.005561633,-0.019365638,-0.015,0.033,0.652,0.163,0.099,0.002,6.176424503326416,0.04329213127493858,0.0036535700783133507,0.374517023563385,,,,,,,,0.5411612115663386,0.4839093614099336,0.48540474555580987,0.534050507362478,95200.0,96200.0,98000.0,95200.0,6.2015461921691895,0.16096742198825056,-0.02835126268406195,-0.0005645838101777677,0.16096742198825056,0.003,0.101,9.43319,6.176424503326416,0.037,0.018,0.289,0.0,0.0,-0.0013837706064805388,0.9999990463256836,-0.0027675421,0.0,0.0,0.0,0.0,0.656,0.0,0.0,0.005,6.176424503326416,3.953000068664551,False,True,False,True,True,False,False
2,0.02,0.042,0.003,0.38,-0.009686394594609737,-0.0027675412129610777,-0.0013837706064805388,0.9999483227729797,-0.0027138283,-0.005561633,-0.019365638,-0.015,0.033,0.652,0.163,0.099,0.002,6.176424503326416,0.04329213127493858,0.0036535700783133507,0.374517023563385,,,,,,,,0.5411612115663386,0.4839093614099336,0.48540474555580987,0.534050507362478,95200.0,96200.0,98000.0,95200.0,6.2015461921691895,0.16096742198825056,-0.02835126268406195,-0.0005645838101777677,0.16096742198825056,0.003,0.101,9.43319,6.176424503326416,0.037,0.018,0.289,0.0,0.0,-0.0013837706064805388,0.9999990463256836,-0.0027675421,0.0,0.0,0.0,0.0,0.656,0.0,0.0,0.005,6.176424503326416,3.953000068664551,False,True,False,True,True,False,False
3,0.03,0.042,0.003,0.38,-0.009686394594609737,-0.0027675412129610777,-0.0013837706064805388,0.9999483227729797,-0.0027138283,-0.005561633,-0.019365638,-0.015,0.033,0.652,0.163,0.099,0.002,6.176424503326416,0.04329213127493858,0.0036535700783133507,0.374517023563385,,,,,,,,0.5411612115663386,0.4839093614099336,0.48540474555580987,0.534050507362478,95200.0,96200.0,98000.0,95200.0,6.2015461921691895,0.16096742198825056,-0.02835126268406195,-0.0005645838101777677,0.16096742198825056,0.003,0.101,9.43319,6.176424503326416,0.037,0.018,0.289,0.0,0.0,-0.0013837706064805388,0.9999990463256836,-0.0027675421,0.0,0.0,0.0,0.0,0.656,0.0,0.0,0.005,6.176424503326416,3.953000068664551,False,True,False,True,True,False,False
4,0.04,0.042,0.003,0.38,-0.009686394594609737,-0.0027675412129610777,-0.0013837706064805388,0.9999483227729797,-0.0027138283,-0.005561633,-0.019365638,-0.015,0.033,0.652,0.163,0.099,0.002,6.176424503326416,0.04329213127493858,0.0036535700783133507,0.374517023563385,,,,,,,,0.5411612115663386,0.4839093614099336,0.48540474555580987,0.534050507362478,95200.0,96200.0,98000.0,95200.0,6.2015461921691895,0.16096742198825056,-0.02835126268406195,-0.0005645838101777677,0.16096742198825056,0.003,0.101,9.43319,6.176424503326416,0.037,0.018,0.289,0.0,0.0,-0.0013837706064805388,0.9999990463256836,-0.0027675421,0.0,0.0,0.0,0.0,0.656,0.0,0.0,0.005,6.176424503326416,3.953000068664551,False,True,False,True,True,False,False
5,0.05,0.041,0.004,0.433,-0.005535082425922155,-0.0,-0.0,0.9999846816062927,0.0,-0.0,-0.011070222,-0.03,0.045,0.591,0.137,0.224,0.011,6.229926586151123,0.042134545743465424,0.004434037953615189,0.4283217787742615,,,,,,,,0.5411612115663386,0.4839093614099336,0.48540474555580987,0.534050507362478,95200.0,96200.0,98000.0,95200.0,6.215763807296753,0.5003891050583658,-0.013427939269092852,-0.00025940337224383917,0.5003891050583658,0.073,0.009,9.200190000000001,6.229926586151123,0.037,0.018,0.346,0.0,0.0,-0.0,1.0,0.0,0.0,0.0,0.0,0.0,0.615,0.0,0.0,0.005,6.229926586151123,3.953000068664551,False,True,False,True,True,False,False
6,0.06,0.041,0.004,0.433,-0.005535082425922155,-0.0,-0.0,0.9999846816062927,0.0,-0.0,-0.011070222,-0.03,0.045,0.591,0.137,0.224,0.011,6.229926586151123,0.042134545743465424,0.004434037953615189,0.4283217787742615,,,,,,,,0.5411612115663386,0.4839093614099336,0.48540474555580987,0.534050507362478,95200.0,96200.0,98000.0,95200.0,6.215763807296753,0.5003891050583658,-0.013427939269092852,-0.00025940337224383917,0.5003891050583658,0.073,0.009,9.200190000000001,6.229926586151123,0.037,0.018,0.346,0.0,0.0,-0.0,1.0,0.0,0.0,0.0,0.0,0.0,0.615,0.0,0.0,0.005,6.229926586151123,3.953000068664551,False,True,False,True,True,False,False
7,0.07,0.041,0.004,0.433,-0.005535082425922155,-0.0,-0.0,0.9999846816062927,0.0,-0.0,-0.011070222,-0.03,0.045,0.591,0.137,0.224,0.011,6.229926586151123,0.042134545743465424,0.004434037953615189,0.4283217787742615,,,,,,,,0.5411612115663386,0.4839093614099336,0.48540474555580987,0.534050507362478,95200.0,96200.0,98000.0,95200.0,6.215763807296753,0.5003891050583658,-0.013427939269092852,-0.00025940337224383917,0.5003891050583658,0.073,0.009,9.200190000000001,6.229926586151123,0.037,0.018,0.346,0.0,0.0,-0.0,1.0,0.0,0.0,0.0,0.0,0.0,0.615,0.0,0.0,0.005,6.229926586151123,3.953000068664551,False,True,False,True,True,False,False
8,0.08,0.041,0.004,0.433,-0.005535082425922155,-0.0,-0.0,0.9999846816062927,0.0,-0.0,-0.011070222,-0.03,0.045,0.591,0.137,0.224,0.011,6.229926586151123,0.042134545743465424,0.004434037953615189,0.4283217787742615,,,,,,,,0.5411612115663386,0.4839093614099336,0.48540474555580987,0.534050507362478,95200.0,96200.0,98000.0,95200.0,6.215763807296753,0.5003891050583658,-0.013427939269092852,-0.00025940337224383917,0.5003891050583658,0.073,0.009,9.200190000000001,6.229926586151123,0.037,0.018,0.346,0.0,0.0,-0.0,1.0,0.0,0.0,0.0,0.0,0.0,0.615,0.0,0.0,0.005,6.229926586151123,3.953000068664551,False,True,False,True,True,False,False
9,0.09,0.041,0.004,0.433,-0.005535082425922155,-0.0,-0.0,0.9999846816062927,0.0,-0.0,-0.011070222,-0.03,0.045,0.591,0.137,0.224,0.011,6.229926586151123,0.042134545743465424,0.004434037953615189,0.4283217787742615,,,,,,,,0.5411612115663386,0.4839093614099336,0.48540474555580987,0.534050507362478,95200.0,96200.0,98000.0,95200.0,6.215763807296753,0.5003891050583658,-0.013427939269092852,-0.00025940337224383917,0.5003891050583658,0.073,0.009,9.200190000000001,6.229926586151123,0.037,0.018,0.346,0.0,0.0,-0.0,1.0,0.0,0.0,0.0,0.0,0.0,0.615,0.0,0.0,0.005,6.229926586151123,3.953000068664551,False,True,False,True,True,False,False
10,0.1,0.041,0.004,0.435,-0.004151311703026295,0.0013837706064805388,-0.0,0.9999904036521912,-1.148897e-05,0.0027675182,-0.008302671,-0.029,0.045,0.564,0.162,0.172,0.018,7.3396947383880615,0.04226306453347206,0.004421519115567207,0.43423551321029663,,,,,,,,0.5709773403524834,0.5673151750972762,0.5715877012283512,0.5665827420462348,96200.0,95200.0,96500.0,95200.0,7.311314344406128,0.4961013199053941,-0.011825741969939726,-0.0019226367589837492,0.4961013199053941,0.118,-0.027,9.078190000000001,7.3396947383880615,0.037,0.018,0.352,0.0,0.0,-0.0,1.0,0.0,0.0,0.0,0.0,0.0,0.607,0.0,0.0,0.005,7.3396947383880615,3.953000068664551,False,True,False,True,True,False,False
11,0.11,0.041,0.004,0.435,-0.004151311703026295,0.0013837706064805388,-0.0,0.9999904036521912,-1.148897e-05,0.0027675182,-0.008302671,-0.029,0.045,0.564,0.162,0.172,0.018,7.3396947383880615,0.04226306453347206,0.004421519115567207,0.43423551321029663,,,,,,,,0.5709773403524834,0.5673151750972762,0.5715877012283512,0.5665827420462348,96200.0,95200.0,96500.0,95200.0,7.311314344406128,0.4961013199053941,-0.011825741969939726,-0.0019226367589837492,0.4961013199053941,0.118,-0.027,9.078190000000001,7.3396947383880615,0.037,0.018,0.352,0.0,0.0,-0.0,1.0,0.0,0.0,0.0,0.0,0.0,0.607,0.0,0.0,0.005,7.3396947383880615,3.953000068664551,False,True,False,True,True,False,False
12,0.12,0.041,0.004,0.435,-0.004151311703026295,0.0013837706064805388,-0.0,0.9999904036521912,-1.148897e-05,0.0027675182,-0.008302671,-0.029,0.045,0.564,0.162,0.172,0.018,7.3396947383880615,0.04226306453347206,0.004421519115567207,0.43423551321029663,,,,,,,,0.5709773403524834,0.5673151750972762,0.5715877012283512,0.5665827420462348,96200.0,95200.0,96500.0,95200.0,7.311314344406128,0.4961013199053941,-0.011825741969939726,-0.0019226367589837492,0.4961013199053941,0.118,-0.027,9.078190000000001,7.3396947383880615,0.037,0.018,0.352,0.0,0.0,-0.0,1.0,0.0,0.0,0.0,0.0,0.0,0.607,0.0,0.0,0.005,7.3396947383880615,3.953000068664551,False,True,False,True,True,False,False
13,0.13,0.041,0.004,0.435,-0.004151311703026295,0.0013837706064805388,-0.0,0.9999904036521912,-1.148897e-05,0.0027675182,-0.008302671,-0.029,0.045,0.564,0.162,0.172,0.018,7.3396947383880615,0.04226306453347206,0.004421519115567207,0.43423551321029663,,,,,,,,0.5709773403524834,0.5673151750972762,0.5715877012283512,0.5665827420462348,96200.0,95200.0,96500.0,95200.0,7.311314344406128,0.4961013199053941,-0.011825741969939726,-0.0019226367589837492,0.4961013199053941,0.118,-0.027,9.078190000000001,7.3396947383880615,0.037,0.018,0.352,0.0,0.0,-0.0,1.0,0.0,0.0,0.0,0.0,0.0,0.607,0.0,0.0,0.005,7.3396947383880615,3.953000068664551,False,True,False,True,True,False,False
14,0.14,0.041,0.004,0.435,-0.004151311703026295,0.0013837706064805388,-0.0,0.9999904036521912,-1.148897e-05,0.0027675182,-0.008302671,-0.029,0.045,0.564,0.162,0.172,0.018,7.3396947383880615,0.04226306453347206,0.004421519115567207,0.43423551321029663,,,,,,,,0.5709773403524834,0.5673151750972762,0.5715877012283512,0.5665827420462348,96200.0,95200.0,96500.0,95200.0,7.311314344406128,0.4961013199053941,-0.011825741969939726,-0.0019226367589837492,0.4961013199053941,0.118,-0.027,9.078190000000001,7.3396947383880615,0.037,0.018,0.352,0.0,0.0,-0.0,1.0,0.0,0.0,0.0,0.0,0.0,0.607,0.0,0.0,0.005,7.3396947383880615,3.953000068664551,False,True,False,True,True,False,False
15,0.15,0.041,0.004,0.435,-0.004151311703026295,0.0013837706064805388,-0.0,0.9999904036521912,-1.148897e-05,0.0027675182,-0.008302671,-0.029,0.045,0.564,0.162,0.172,0.018,7.3396947383880615,0.04226306453347206,0.004421519115567207,0.43423551321029663,,,,,,,,0.5709773403524834,0.5673151750972762,0.5715877012283512,0.5665827420462348,96200.0,95200.0,96500.0,95200.0,7.311314344406128,0.4961013199053941,-0.011825741969939726,-0.0019226367589837492,0.4961013199053941,0.118,-0.027,9.078190000000001,7.3396947383880615,0.037,0.018,0.352,0.0,0.0,-0.0,1.0,0.0,0.0,0.0,0.0,0.0,0.607,0.0,0.0,0.005,7.3396947383880615,3.953000068664551,False,True,False,True,True,False,False
16,0.16,0.041,0.004,0.435,-0.004151311703026295,0.0013837706064805388,-0.0,0.9999904036521912,-1.148897e-05,0.0027675182,-0.008302671,-0.029,0.045,0.564,0.162,0.172,0.018,7.3396947383880615,0.04226306453347206,0.004421519115567207,0.43423551321029663,,,,,,,,0.5709773403524834,0.5673151750972762,0.5715877012283512,0.5665827420462348,96200.0,95200.0,96500.0,95200.0,7.311314344406128,0.4961013199053941,-0.011825741969939726,-0.0019226367589837492,0.4961013199053941,0.118,-0.027,9.078190000000001,7.3396947383880615,0.037,0.018,0.352,0.0,0.0,-0.0,1.0,0.0,0.0,0.0,0.0,0.0,0.607,0.0,0.0,0.005,7.3396947383880615,3.953000068664551,False,True,False,True,True,False,False
17,0.17,0.041,0.004,0.435,-0.004151311703026295,0.0013837706064805388,-0.0,0.9999904036521912,-1.148897e-05,0.0027675182,-0.008302671,-0.029,0.045,0.564,0.162,0.172,0.018,7.3396947383880615,0.04226306453347206,0.004421519115567207,0.43423551321029663,,,,,,,,0.5709773403524834,0.5673151750972762,0.5715877012283512,0.5665827420462348,96200.0,95200.0,96500.0,95200.0,7.311314344406128,0.4961013199053941,-0.011825741969939726,-0.0019226367589837492,0.4961013199053941,0.118,-0.027,9.078190000000001,7.3396947383880615,0.037,0.018,0.352,0.0,0.0,-0.0,1.0,0.0,0.0,0.0,0.0,0.0,0.607,0.0,0.0,0.005,7.3396947383880615,3.953000068664551,False,True,False,True,True,False,False
18,0.18,0.041,0.004,0.435,-0.004151311703026295,0.0013837706064805388,-0.0,0.9999904036521912,-1.148897e-05,0.0027675182,-0.008302671,-0.029,0.045,0.564,0.162,0.172,0.018,7.3396947383880615,0.04226306453347206,0.004421519115567207,0.43423551321029663,,,,,,,,0.5709773403524834,0.5673151750972762,0.5715877012283512,0.5665827420462348,96200.0,95200.0,96500.0,95200.0,7.311314344406128,0.4961013199053941,-0.011825741969939726,-0.0019226367589837492,0.4961013199053941,0.118,-0.027,9.078190000000001,7.3396947383880615,0.037,0.018,0.352,0.0,0.0,-0.0,1.0,0.0,0.0,0.0,0.0,0.0,0.607,0.0,0.0,0.005,7.3396947383880615,3.953000068664551,False,True,False,True,True,False,False
19,0.19,0.041,0.004,0.435,-0.004151311703026295,0.0013837706064805388,-0.0,0.9999904036521912,-1.148897e-05,0.0027675182,-0.008302671,-0.029,0.045,0.564,0.162,0.172,0.018,7.3396947383880615,0.04226306453347206,0.004421519115567207,0.43423551321029663,,,,,,,,0.5709773403524834,0.5673151750972762,0.5715877012283512,0.5665827420462348,96200.0,95200.0,96500.0,95200.0,7.311314344406128,0.4961013199053941,-0.011825741969939726,-0.0019226367589837492,0.4961013199053941,0.118,-0.027,9.078190000000001,7.3396947383880615,0.037,0.018,0.352,0.0,0.0,-0.0,1.0,0.0,0.0,0.0,0.0,0.0,0.607,0.0,0.0,0.005,7.3396947383880615,3.953000068664551,False,True,False,True,True,False,False
20,0.2,0.041,0.004,0.435,-0.004151311703026295,0.0013837706064805388,-0.0,0.9999904036521912,-1.148897e-05,0.0027675182,-0.008302671,-0.029,0.045,0.564,0.162,0.172,0.018,7.3396947383880615,0.04226306453347206,0.004421519115567207,0.43423551321029663,,,,,,,,0.5709773403524834,0.5673151750972762,0.5715877012283512,0.5665827420462348,96200.0,95200.0,96500.0,95200.0,7.311314344406128,0.4961013199053941,-0.011825741969939726,-0.0019226367589837492,0.4961013199053941,0.118,-0.027,9.078190000000001,7.3396947383880615,0.037,0.018,0.352,0.0,0.0,-0.0,1.0,0.0,0.0,0.0,0.0,0.0,0.607,0.0,0.0,0.005,7.3396947383880615,3.953000068664551,False,True,False,True,True,False,False
21,0.21,0.041,0.004,0.435,-0.004151311703026295,0.0013837706064805388,-0.0,0.9999904036521912,-1.148897e-05,0.0027675182,-0.008302671,-0.029,0.045,0.564,0.162,0.172,0.018,7.3396947383880615,0.04226306453347206,0.004421519115567207,0.43423551321029663,,,,,,,,0.5709773403524834,0.5673151750972762,0.5715877012283512,0.5665827420462348,96200.0,95200.0,96500.0,95200.0,7.311314344406128,0.4961013199053941,-0.011825741969939726,-0.0019226367589837492,0.4961013199053941,0.118,-0.027,9.078190000000001,7.3396947383880615,0.037,0.018,0.352,0.0,0.0,-0.0,1.0,0.0,0.0,0.0,0.0,0.0,0.607,0.0,0.0,0.005,7.3396947383880615,3.953000068664551,False,True,False,True,True,False,False
22,0.22,0.041,0.004,0.435,-0.004151311703026295,0.0013837706064805388,-0.0,0.9999904036521912,-1.148897e-05,0.0027675182,-0.008302671,-0.029,0.045,0.564,0.162,0.172,0.018,7.3396947383880615,0.04226306453347206,0.004421519115567207,0.43423551321029663,,,,,,,,0.5709773403524834,0.5673151750972762,0.5715877012283512,0.5665827420462348,96200.0,95200.0,96500.0,95200.0,7.311314344406128,0.4961013199053941,-0.011825741969939726,-0.0019226367589837492,0.4961013199053941,0.118,-0.027,9.078190000000001,7.3396947383880615,0.037,0.018,0.352,0.0,0.0,-0.0,1.0,0.0,0.0,0.0,0.0,0.0,0.607,0.0,0.0,0.005,7.3396947383880615,3.953000068664551,False,True,False,True,True,False,False
23,0.23,0.041,0.004,0.435,-0.004151311703026295,0.0013837706064805388,-0.0,0.9999904036521912,-1.148897e-05,0.0027675182,-0.008302671,-0.029,0.045,0.564,0.162,0.172,0.018,7.3396947383880615,0.04226306453347206,0.004421519115567207,0.43423551321029663,,,,,,,,0.5709773403524834,0.5673151750972762,0.5715877012283512,0.5665827420462348,96200.0,95200.0,96500.0,95200.0,7.311314344406128,0.4961013199053941,-0.011825741969939726,-0.0019226367589837492,0.4961013199053941,0.118,-0.027,9.078190000000001,7.3396947383880615,0.037,0.018,0.352,0.0,0.0,-0.0,1.0,0.0,0.0,0.0,0.0,0.0,0.607,0.0,0.0,0.005,7.3396947383880615,3.953000068664551,False,True,False,True,True,False,False
24,0.24,0.041,0.004,0.435,-0.004151311703026295,0.0013837706064805388,-0.0,0.9999904036521912,-1.148897e-05,0.0027675182,-0.008302671,-0.029,0.045,0.564,0.162,0.172,0.018,7.3396947383880615,0.04226306453347206,0.004421519115567207,0.43423551321029663,,,,,,,,0.5709773403524834,0.5673151750972762,0.5715877012283512,0.5665827420462348,96200.0,95200.0,96500.0,95200.0,7.311314344406128,0.4961013199053941,-0.011825741969939726,-0.0019226367589837492,0.4961013199053941,0.118,-0.027,9.078190000000001,7.3396947383880615,0.037,0.018,0.352,0.0,0.0,-0.0,1.0,0.0,0.0,0.0,0.0,0.0,0.607,0.0,0.0,0.005,7.3396947383880615,3.953000068664551,False,True,False,True,True,False,False
25,0.25,0.041,0.004,0.435,-0.004151311703026295,0.0013837706064805388,-0.0,0.9999904036521912,-1.148897e-05,0.0027675182,-0.008302671,-0.029,0.045,0.564,0.162,0.172,0.018,7.3396947383880615,0.04226306453347206,0.004421519115567207,0.43423551321029663,,,,,,,,0.5709773403524834,0.5673151750972762,0.5715877012283512,0.5665827420462348,96200.0,95200.0,96500.0,95200.0,7.311314344406128,0.4961013199053941,-0.011825741969939726,-0.0019226367589837492,0.4961013199053941,0.118,-0.027,9.078190000000001,7.3396947383880615,0.037,0.018,0.352,0.0,0.0,-0.0,1.0,0.0,0.0,0.0,0.0,0.0,0.607,0.0,0.0,0.005,7.3396947383880615,3.953000068664551,False,True,False,True,True,False,False
26,0.26,0.041,0.004,0.435,-0.004151311703026295,0.0013837706064805388,-0.0,0.9999904036521912,-1.148897e-05,0.0027675182,-0.008302671,-0.029,0.045,0.564,0.162,0.172,0.018,7.3396947383880615,0.04226306453347206,0.004421519115567207,0.43423551321029663,,,,,,,,0.5709773403524834,0.5673151750972762,0.5715877012283512,0.5665827420462348,96200.0,95200.0,96500.0,95200.0,7.311314344406128,0.4961013199053941,-0.011825741969939726,-0.0019226367589837492,0.4961013199053941,0.118,-0.027,9.078190000000001,7.3396947383880615,0.037,0.018,0.352,0.0,0.0,-0.0,1.0,0.0,0.0,0.0,0.0,0.0,0.607,0.0,0.0,0.005,7.3396947383880615,3.953000068664551,False,True,False,True,True,False,False
27,0.27,0.041,0.004,0.435,-0.004151311703026295,0.0013837706064805388,-0.0,0.9999904036521912,-1.148897e-05,0.0027675182,-0.008302671,-0.029,0.045,0.564,0.162,0.172,0.018,7.3396947383880615,0.04226306453347206,0.004421519115567207,0.43423551321029663,,,,,,,,0.5709773403524834,0.5673151750972762,0.5715877012283512,0.5665827420462348,96200.0,95200.0,96500.0,95200.0,7.311314344406128,0.4961013199053941,-0.011825741969939726,-0.0019226367589837492,0.4961013199053941,0.118,-0.027,9.078190000000001,7.3396947383880615,0.037,0.018,0.352,0.0,0.0,-0.0,1.0,0.0,0.0,0.0,0.0,0.0,0.607,0.0,0.0,0.005,7.3396947383880615,3.953000068664551,False,True,False,True,True,False,False
28,0.28,0.041,0.004,0.435,-0.004151311703026295,0.0013837706064805388,-0.0,0.9999904036521912,-1.148897e-05,0.0027675182,-0.008302671,-0.029,0.045,0.564,0.162,0.172,0.018,7.3396947383880615,0.04226306453347206,0.004421519115567207,0.43423551321029663,,,,,,,,0.5709773403524834,0.5673151750972762,0.5715877012283512,0.5665827420462348,96200.0,95200.0,96500.0,95200.0,7.311314344406128,0.4961013199053941,-0.011825741969939726,-0.0019226367589837492,0.4961013199053941,0.118,-0.027,9.078190000000001,7.3396947383880615,0.037,0.018,0.352,0.0,0.0,-0.0,1.0,0.0,0.0,0.0,0.0,0.0,0.607,0.0,0.0,0.005,7.3396947383880615,3.953000068664551,False,True,False,True,True,False,False
29,0.29,0.041,0.004,0.435,-0.004151311703026295,0.0013837706064805388,-0.0,0.9999904036521912,-1.148897e-05,0.0027675182,-0.008302671,-0.029,0.045,0.564,0.162,0.172,0.018,7.3396947383880615,0.04226306453347206,0.004421519115567207,0.43423551321029663,,,,,,,,0.5709773403524834,0.5673151750972762,0.5715877012283512,0.5665827420462348,96200.0,95200.0,96500.0,95200.0,7.311314344406128,0.4961013199053941,-0.011825741969939726,-0.0019226367589837492,0.4961013199053941,0.118,-0.027,9.078190000000001,7.3396947383880615,0.037,0.018,0.352,0.0,0.0,-0.0,1.0,0.0,0.0,0.0,0.0,0.0,0.607,0.0,0.0,0.005,7.3396947383880615,3.953000068664551,False,True,False,True,True,False,False
30,0.3,0.041,0.004,0.435,-0.004151311703026295,0.0013837706064805388,-0.0,0.9999904036521912,-1.148897e-05,0.0027675182,-0.008302671,-0.029,0.045,0.564,0.162,0.172,0.018,7.3396947383880615,0.04226306453347206,0.004421519115567207,0.43423551321029663,,,,,,,,0.5709773403524834,0.5673151750972762,0.5715877012283512,0.5665827420462348,96200.0,95200.0,96500.0,95200.0,7.311314344406128,0.4961013199053941,-0.011825741969939726,-0.0019226367589837492,0.4961013199053941,0.118,-0.027,9.078190000000001,7.3396947383880615,0.037,0.018,0.352,0.0,0.0,-0.0,1.0,0.0,0.0,0.0,0.0,0.0,0.607,0.0,0.0,0.005,7.3396947383880615,3.953000068664551,False,True,False,True,True,False,False
31,0.31,0.041,0.004,0.435,-0.004151311703026295,0.0013837706064805388,-0.0,0.9999904036521912,-1.148897e-05,0.0027675182,-0.008302671,-0.029,0.045,0.564,0.162,0.172,0.018,7.3396947383880615,0.04226306453347206,0.004421519115567207,0.43423551321029663,,,,,,,,0.5709773403524834,0.5673151750972762,0.5715877012283512,0.5665827420462348,96200.0,95200.0,96500.0,95200.0,7.311314344406128,0.4961013199053941,-0.011825741969939726,-0.0019226367589837492,0.4961013199053941,0.118,-0.027,9.078190000000001,7.3396947383880615,0.037,0.018,0.352,0.0,0.0,-0.0,1.0,0.0,0.0,0.0,0.0,0.0,0.607,0.0,0.0,0.005,7.3396947383880615,3.953000068664551,False,True,False,True,True,False,False
32,0.32,0.041,0.004,0.435,-0.004151311703026295,0.0013837706064805388,-0.0,0.9999904036521912,-1.148897e-05,0.0027675182,-0.008302671,-0.029,0.045,0.564,0.162,0.172,0.018,7.3396947383880615,0.04226306453347206,0.004421519115567207,0.43423551321029663,,,,,,,,0.5709773403524834,0.5673151750972762,0.5715877012283512,0.5665827420462348,96200.0,95200.0,96500.0,95200.0,7.311314344406128,0.4961013199053941,-0.011825741969939726,-0.0019226367589837492,0.4961013199053941,0.118,-0.027,9.078190000000001,7.3396947383880615,0.037,0.018,0.352,0.0,0.0,-0.0,1.0,0.0,0.0,0.0,0.0,0.0,0.607,0.0,0.0,0.005,7.3396947383880615,3.953000068664551,False,True,False,True,True,False,False
33,0.33,0.041,0.004,0.435,-0.004151311703026295,0.0013837706064805388,-0.0,0.9999904036521912,-1.148897e-05,0.0027675182,-0.008302671,-0.029,0.045,0.564,0.162,0.172,0.018,7.3396947383880615,0.04226306453347206,0.004421519115567207,0.43423551321029663,,,,,,,,0.5709773403524834,0.5673151750972762,0.5715877012283512,0.5665827420462348,96200.0,95200.0,96500.0,95200.0,7.311314344406128,0.4961013199053941,-0.011825741969939726,-0.0019226367589837492,0.4961013199053941,0.118,-0.027,9.078190000000001,7.3396947383880615,0.037,0.018,0.352,0.0,0.0,-0.0,1.0,0.0,0.0,0.0,0.0,0.0,0.607,0.0,0.0,0.005,7.3396947383880615,3.953000068664551,False,True,False,True,True,False,False
34,0.34,0.042,0.009,0.565,-0.0027675412129610777,-0.0027675412129610777,0.0013837706064805388,0.9999913573265076,0.002782882,-0.005527403,-0.005542807,-0.003,0.018,0.032,-0.013,-0.034,0.003,8.437694787979126,0.04299259930849075,0.009104534983634949,0.5680049061775208,,,,,,,,0.5502708476386664,0.5477683680476082,0.5682459754329747,0.5450522621499961,96500.0,97100.0,100000.0,95200.0,8.409314393997192,0.06433203631647211,0.023041123064011598,0.00563057907988098,0.06433203631647211,0.051,-0.073,9.42219,8.437694787979126,0.037,0.018,0.497,0.0,0.0,-0.0,1.0,0.0,0.0,0.0,0.0,0.0,0.045,0.0,0.0,0.0,8.437694787979126,3.931999921798706,False,True,False,True,True,False,False
35,0.35000000000000003,0.042,0.009,0.565,-0.0027675412129610777,-0.0027675412129610777,0.0013837706064805388,0.9999913573265076,0.002782882,-0.005527403,-0.005542807,-0.003,0.018,0.032,-0.013,-0.034,0.003,8.437694787979126,0.04299259930849075,0.009104534983634949,0.5680049061775208,,,,,,,,0.5502708476386664,0.5477683680476082,0.5682459754329747,0.5450522621499961,96500.0,97100.0,100000.0,95200.0,8.409314393997192,0.06433203631647211,0.023041123064011598,0.00563057907988098,0.06433203631647211,0.051,-0.073,9.42219,8.437694787979126,0.037,0.018,0.497,0.0,0.0,-0.0,1.0,0.0,0.0,0.0,0.0,0.0,0.045,0.0,0.0,0.0,8.437694787979126,3.931999921798706,False,True,False,True,True,False,False
36,0.36,0.042,0.009,0.565,-0.0027675412129610777,-0.0027675412129610777,0.0013837706064805388,0.9999913573265076,0.002782882,-0.005527403,-0.005542807,-0.003,0.018,0.032,-0.013,-0.034,0.003,8.437694787979126,0.04299259930849075,0.009104534983634949,0.5680049061775208,,,,,,,,0.5502708476386664,0.5477683680476082,0.5682459754329747,0.5450522621499961,96500.0,97100.0,100000.0,95200.0,8.409314393997192,0.06433203631647211,0.023041123064011598,0.00563057907988098,0.06433203631647211,0.051,-0.073,9.42219,8.437694787979126,0.037,0.018,0.497,0.0,0.0,-0.0,1.0,0.0,0.0,0.0,0.0,0.0,0.045,0.0,0.0,0.0,8.437694787979126,3.931999921798706,False,True,False,True,True,False,False
37,0.37,0.042,0.009,0.565,-0.0027675412129610777,-0.0027675412129610777,0.0013837706064805388,0.9999913573265076,0.002782882,-0.005527403,-0.005542807,-0.003,0.018,0.032,-0.013,-0.034,0.003,8.437694787979126,0.04299259930849075,0.009104534983634949,0.5680049061775208,,,,,,,,0.5502708476386664,0.5477683680476082,0.5682459754329747,0.5450522621499961,96500.0,97100.0,100000.0,95200.0,8.409314393997192,0.06433203631647211,0.023041123064011598,0.00563057907988098,0.06433203631647211,0.051,-0.073,9.42219,8.437694787979126,0.037,0.018,0.497,0.0,0.0,-0.0,1.0,0.0,0.0,0.0,0.0,0.0,0.045,0.0,0.0,0.0,8.437694787979126,3.931999921798706,False,True,False,True,True,False,False
38,0.38,0.042,0.009,0.565,-0.0027675412129610777,-0.0027675412129610777,0.0013837706064805388,0.9999913573265076,0.002782882,-0.005527403,-0.005542807,-0.003,0.018,0.032,-0.013,-0.034,0.003,8.437694787979126,0.04299259930849075,0.009104534983634949,0.5680049061775208,,,,,,,,0.5502708476386664,0.5477683680476082,0.5682459754329747,0.5450522621499961,96500.0,97100.0,100000.0,95200.0,8.409314393997192,0.06433203631647211,0.023041123064011598,0.00563057907988098,0.06433203631647211,0.051,-0.073,9.42219,8.437694787979126,0.037,0.018,0.497,0.0,0.0,-0.0,1.0,0.0,0.0,0.0,0.0,0.0,0.045,0.0,0.0,0.0,8.437694787979126,3.931999921798706,False,True,False,True,True,False,False
39,0.39,0.042,0.009,0.565,-0.0027675412129610777,-0.0027675412129610777,0.0013837706064805388,0.9999913573265076,0.002782882,-0.005527403,-0.005542807,-0.003,0.018,0.032,-0.013,-0.034,0.003,8.437694787979126,0.04299259930849075,0.009104534983634949,0.5680049061775208,,,,,,,,0.5502708476386664,0.5477683680476082,0.5682459754329747,0.5450522621499961,96500.0,97100.0,100000.0,95200.0,8.409314393997192,0.06433203631647211,0.023041123064011598,0.00563057907988098,0.06433203631647211,0.051,-0.073,9.42219,8.437694787979126,0.037,0.018,0.497,0.0,0.0,-0.0,1.0,0.0,0.0,0.0,0.0,0.0,0.045,0.0,0.0,0.0,8.437694787979126,3.931999921798706,False,True,False,True,True,False,False
40,0.4,0.042,0.009,0.565,-0.0027675412129610777,-0.0027675412129610777,0.0013837706064805388,0.9999913573265076,0.002782882,-0.005527403,-0.005542807,-0.003,0.018,0.032,-0.013,-0.034,0.003,8.437694787979126,0.04299259930849075,0.009104534983634949,0.5680049061775208,,,,,,,,0.5502708476386664,0.5477683680476082,0.5682459754329747,0.5450522621499961,96500.0,97100.0,100000.0,95200.0,8.409314393997192,0.06433203631647211,0.023041123064011598,0.00563057907988098,0.06433203631647211,0.051,-0.073,9.42219,8.437694787979126,0.037,0.018,0.497,0.0,0.0,-0.0,1.0,0.0,0.0,0.0,0.0,0.0,0.045,0.0,0.0,0.0,8.437694787979126,3.931999921798706,False,True,False,True,True,False,False
41,0.41000000000000003,0.042,0.009,0.565,-0.0027675412129610777,-0.0027675412129610777,0.0013837706064805388,0.9999913573265076,0.002782882,-0.005527403,-0.005542807,-0.003,0.018,0.032,-0.013,-0.034,0.003,8.437694787979126,0.04299259930849075,0.009104534983634949,0.5680049061775208,,,,,,,,0.5502708476386664,0.5477683680476082,0.5682459754329747,0.5450522621499961,96500.0,97100.0,100000.0,95200.0,8.409314393997192,0.06433203631647211,0.023041123064011598,0.00563057907988098,0.06433203631647211,0.051,-0.073,9.42219,8.437694787979126,0.037,0.018,0.497,0.0,0.0,-0.0,1.0,0.0,0.0,0.0,0.0,0.0,0.045,0.0,0.0,0.0,8.437694787979126,3.931999921798706,False,True,False,True,True,False,False
42,0.42,0.042,0.009,0.565,-0.0027675412129610777,-0.0027675412129610777,0.0013837706064805388,0.9999913573265076,0.002782882,-0.005527403,-0.005542807,-0.003,0.018,0.032,-0.013,-0.034,0.003,8.437694787979126,0.04299259930849075,0.009104534983634949,0.5680049061775208,,,,,,,,0.5502708476386664,0.5477683680476082,0.5682459754329747,0.5450522621499961,96500.0,97100.0,100000.0,95200.0,8.409314393997192,0.06433203631647211,0.023041123064011598,0.00563057907988098,0.06433203631647211,0.051,-0.073,9.42219,8.437694787979126,0.037,0.018,0.497,0.0,0.0,-0.0,1.0,0.0,0.0,0.0,0.0,0.0,0.045,0.0,0.0,0.0,8.437694787979126,3.931999921798706,False,True,False,True,True,False,False
43,0.43,0.042,0.009,0.565,-0.0027675412129610777,-0.0027675412129610777,0.0013837706064805388,0.9999913573265076,0.002782882,-0.005527403,-0.005542807,-0.003,0.018,0.032,-0.013,-0.034,0.003,8.437694787979126,0.04299259930849075,0.009104534983634949,0.5680049061775208,,,,,,,,0.5502708476386664,0.5477683680476082,0.5682459754329747,0.5450522621499961,96500.0,97100.0,100000.0,95200.0,8.409314393997192,0.06433203631647211,0.023041123064011598,0.00563057907988098,0.06433203631647211,0.051,-0.073,9.42219,8.437694787979126,0.037,0.018,0.497,0.0,0.0,-0.0,1.0,0.0,0.0,0.0,0.0,0.0,0.045,0.0,0.0,0.0,8.437694787979126,3.931999921798706,False,True,False,True,True,False,False
44,0.44,0.042,0.009,0.565,-0.0027675412129610777,-0.0027675412129610777,0.0013837706064805388,0.9999913573265076,0.002782882,-0.005527403,-0.005542807,-0.003,0.018,0.032,-0.013,-0.034,0.003,8.437694787979126,0.04299259930849075,0.009104534983634949,0.5680049061775208,,,,,,,,0.5502708476386664,0.5477683680476082,0.5682459754329747,0.5450522621499961,96500.0,97100.0,100000.0,95200.0,8.409314393997192,0.06433203631647211,0.023041123064011598,0.00563057907988098,0.06433203631647211,0.051,-0.073,9.42219,8.437694787979126,0.037,0.018,0.497,0.0,0.0,-0.0,1.0,0.0,0.0,0.0,0.0,0.0,0.045,0.0,0.0,0.0,8.437694787979126,3.931999921798706,False,True,False,True,True,False,False
45,0.45,0.042,0.009,0.565,-0.0027675412129610777,-0.0027675412129610777,0.0013837706064805388,0.9999913573265076,0.002782882,-0.005527403,-0.005542807,-0.003,0.018,0.032,-0.013,-0.034,0.003,8.437694787979126,0.04299259930849075,0.009104534983634949,0.5680049061775208,,,,,,,,0.5502708476386664,0.5477683680476082,0.5682459754329747,0.5450522621499961,96500.0,97100.0,100000.0,95200.0,8.409314393997192,0.06433203631647211,0.023041123064011598,0.00563057907988098,0.06433203631647211,0.051,-0.073,9.42219,8.437694787979126,0.037,0.018,0.497,0.0,0.0,-0.0,1.0,0.0,0.0,0.0,0.0,0.0,0.045,0.0,0.0,0.0,8.437694787979126,3.931999921798706,False,True,False,True,True,False,False
46,0.46,0.042,0.009,0.565,-0.0027675412129610777,-0.0027675412129610777,0.0013837706064805388,0.9999913573265076,0.002782882,-0.005527403,-0.005542807,-0.003,0.018,0.032,-0.013,-0.034,0.003,8.437694787979126,0.04299259930849075,0.009104534983634949,0.5680049061775208,,,,,,,,0.5502708476386664,0.5477683680476082,0.5682459754329747,0.5450522621499961,96500.0,97100.0,100000.0,95200.0,8.409314393997192,0.06433203631647211,0.023041123064011598,0.00563057907988098,0.06433203631647211,0.051,-0.073,9.42219,8.437694787979126,0.037,0.018,0.497,0.0,0.0,-0.0,1.0,0.0,0.0,0.0,0.0,0.0,0.045,0.0,0.0,0.0,8.437694787979126,3.931999921798706,False,True,False,True,True,False,False
47,0.47000000000000003,0.042,0.009,0.565,-0.0027675412129610777,-0.0027675412129610777,0.0013837706064805388,0.9999913573265076,0.002782882,-0.005527403,-0.005542807,-0.003,0.018,0.032,-0.013,-0.034,0.003,8.437694787979126,0.04299259930849075,0.009104534983634949,0.5680049061775208,,,,,,,,0.5502708476386664,0.5477683680476082,0.5682459754329747,0.5450522621499961,96500.0,97100.0,100000.0,95200.0,8.409314393997192,0.06433203631647211,0.023041123064011598,0.00563057907988098,0.06433203631647211,0.051,-0.073,9.42219,8.437694787979126,0.037,0.018,0.497,0.0,0.0,-0.0,1.0,0.0,0.0,0.0,0.0,0.0,0.045,0.0,0.0,0.0,8.437694787979126,3.931999921798706,False,True,False,True,True,False,False
48,0.48,0.042,0.009,0.565,-0.0027675412129610777,-0.0027675412129610777,0.0013837706064805388,0.9999913573265076,0.002782882,-0.005527403,-0.005542807,-0.003,0.018,0.032,-0.013,-0.034,0.003,8.437694787979126,0.04299259930849075,0.009104534983634949,0.5680049061775208,,,,,,,,0.5502708476386664,0.5477683680476082,0.5682459754329747,0.5450522621499961,96500.0,97100.0,100000.0,95200.0,8.409314393997192,0.06433203631647211,0.023041123064011598,0.00563057907988098,0.06433203631647211,0.051,-0.073,9.42219,8.437694787979126,0.037,0.018,0.497,0.0,0.0,-0.0,1.0,0.0,0.0,0.0,0.0,0.0,0.045,0.0,0.0,0.0,8.437694787979126,3.931999921798706,False,True,False,True,True,False,False
49,0.49,0.042,0.009,0.565,-0.0027675412129610777,-0.0027675412129610777,0.0013837706064805388,0.9999913573265076,0.002782882,-0.005527403,-0.005542807,-0.003,0.018,0.032,-0.013,-0.034,0.003,8.437694787979126,0.04299259930849075,0.009104534983634949,0.5680049061775208,,,,,,,,0.5502708476386664,0.5477683680476082,0.5682459754329747,0.5450522621499961,96500.0,97100.0,100000.0,95200.0,8.409314393997192,0.06433203631647211,0.023041123064011598,0.00563057907988098,0.06433203631647211,0.051,-0.073,9.42219,8.437694787979126,0.037,0.018,0.497,0.0,0.0,-0.0,1.0,0.0,0.0,0.0,0.0,0.0,0.045,0.0,0.0,0.0,8.437694787979126,3.931999921798706,False,True,False,True,True,False,False
50,0.5,0.042,0.009,0.565,-0.0027675412129610777,-0.0027675412129610777,0.0013837706064805388,0.9999913573265076,0.002782882,-0.005527403,-0.005542807,-0.003,0.018,0.032,-0.013,-0.034,0.003,8.437694787979126,0.04299259930849075,0.009104534983634949,0.5680049061775208,,,,,,,,0.5502708476386664,0.5477683680476082,0.5682459754329747,0.5450522621499961,96500.0,97100.0,100000.0,95200.0,8.409314393997192,0.06433203631647211,0.023041123064011598,0.00563057907988098,0.06433203631647211,0.051,-0.073,9.42219,8.437694787979126,0.037,0.018,0.497,0.0,0.0,-0.0,1.0,0.0,0.0,0.0,0.0,0.0,0.045,0.0,0.0,0.0,8.437694787979126,3.931999921798706,False,True,False,True,True,False,False
51,0.51,0.042,0.009,0.565,-0.0027675412129610777,-0.0027675412129610777,0.0013837706064805388,0.9999913573265076,0.002782882,-0.005527403,-0.005542807,-0.003,0.018,0.032,-0.013,-0.034,0.003,8.437694787979126,0.04299259930849075,0.009104534983634949,0.5680049061775208,,,,,,,,0.5502708476386664,0.5477683680476082,0.5682459754329747,0.5450522621499961,96500.0,97100.0,100000.0,95200.0,8.409314393997192,0.06433203631647211,0.023041123064011598,0.00563057907988098,0.06433203631647211,0.051,-0.073,9.42219,8.437694787979126,0.037,0.018,0.497,0.0,0.0,-0.0,1.0,0.0,0.0,0.0,0.0,0.0,0.045,0.0,0.0,0.0,8.437694787979126,3.931999921798706,False,True,False,True,True,False,False
52,0.52,0.042,0.009,0.565,-0.0027675412129610777,-0.0027675412129610777,0.0013837706064805388,0.9999913573265076,0.002782882,-0.005527403,-0.005542807,-0.003,0.018,0.032,-0.013,-0.034,0.003,8.437694787979126,0.04299259930849075,0.009104534983634949,0.5680049061775208,,,,,,,,0.5502708476386664,0.5477683680476082,0.5682459754329747,0.5450522621499961,96500.0,97100.0,100000.0,95200.0,8.409314393997192,0.06433203631647211,0.023041123064011598,0.00563057907988098,0.06433203631647211,0.051,-0.073,9.42219,8.437694787979126,0.037,0.018,0.497,0.0,0.0,-0.0,1.0,0.0,0.0,0.0,0.0,0.0,0.045,0.0,0.0,0.0,8.437694787979126,3.931999921798706,False,True,False,True,True,False,False
53,0.53,0.042,0.009,0.565,-0.0027675412129610777,-0.0027675412129610777,0.0013837706064805388,0.9999913573265076,0.002782882,-0.005527403,-0.005542807,-0.003,0.018,0.032,-0.013,-0.034,0.003,8.437694787979126,0.04299259930849075,0.009104534983634949,0.5680049061775208,,,,,,,,0.5502708476386664,0.5477683680476082,0.5682459754329747,0.5450522621499961,96500.0,97100.0,100000.0,95200.0,8.409314393997192,0.06433203631647211,0.023041123064011598,0.00563057907988098,0.06433203631647211,0.051,-0.073,9.42219,8.437694787979126,0.037,0.018,0.497,0.0,0.0,-0.0,1.0,0.0,0.0,0.0,0.0,0.0,0.045,0.0,0.0,0.0,8.437694787979126,3.931999921798706,False,True,False,True,True,False,False
54,0.54,0.042,0.009,0.565,-0.0027675412129610777,-0.0027675412129610777,0.0013837706064805388,0.9999913573265076,0.002782882,-0.005527403,-0.005542807,-0.003,0.018,0.032,-0.013,-0.034,0.003,8.437694787979126,0.04299259930849075,0.009104534983634949,0.5680049061775208,,,,,,,,0.5502708476386664,0.5477683680476082,0.5682459754329747,0.5450522621499961,96500.0,97100.0,100000.0,95200.0,8.409314393997192,0.06433203631647211,0.023041123064011598,0.00563057907988098,0.06433203631647211,0.051,-0.073,9.42219,8.437694787979126,0.037,0.018,0.497,0.0,0.0,-0.0,1.0,0.0,0.0,0.0,0.0,0.0,0.045,0.0,0.0,0.0,8.437694787979126,3.931999921798706,False,True,False,True,True,False,False
55,0.55,0.042,0.009,0.565,-0.0027675412129610777,-0.0027675412129610777,0.0013837706064805388,0.9999913573265076,0.002782882,-0.005527403,-0.005542807,-0.003,0.018,0.032,-0.013,-0.034,0.003,8.437694787979126,0.04299259930849075,0.009104534983634949,0.5680049061775208,,,,,,,,0.5502708476386664,0.5477683680476082,0.5682459754329747,0.5450522621499961,96500.0,97100.0,100000.0,95200.0,8.409314393997192,0.06433203631647211,0.023041123064011598,0.00563057907988098,0.06433203631647211,0.051,-0.073,9.42219,8.437694787979126,0.037,0.018,0.497,0.0,0.0,-0.0,1.0,0.0,0.0,0.0,0.0,0.0,0.045,0.0,0.0,0.0,8.437694787979126,3.931999921798706,False,True,False,True,True,False,False
56,0.56,0.042,0.009,0.565,-0.0027675412129610777,-0.0027675412129610777,0.0013837706064805388,0.9999913573265076,0.002782882,-0.005527403,-0.005542807,-0.003,0.018,0.032,-0.013,-0.034,0.003,8.437694787979126,0.04299259930849075,0.009104534983634949,0.5680049061775208,,,,,,,,0.5502708476386664,0.5477683680476082,0.5682459754329747,0.5450522621499961,96500.0,97100.0,100000.0,95200.0,8.409314393997192,0.06433203631647211,0.023041123064011598,0.00563057907988098,0.06433203631647211,0.051,-0.073,9.42219,8.437694787979126,0.037,0.018,0.497,0.0,0.0,-0.0,1.0,0.0,0.0,0.0,0.0,0.0,0.045,0.0,0.0,0.0,8.437694787979126,3.931999921798706,False,True,False,True,True,False,False
57,0.5700000000000001,0.042,0.009,0.565,-0.0027675412129610777,-0.0027675412129610777,0.0013837706064805388,0.9999913573265076,0.002782882,-0.005527403,-0.005542807,-0.003,0.018,0.032,-0.013,-0.034,0.003,8.437694787979126,0.04299259930849075,0.009104534983634949,0.5680049061775208,,,,,,,,0.5502708476386664,0.5477683680476082,0.5682459754329747,0.5450522621499961,96500.0,97100.0,100000.0,95200.0,8.409314393997192,0.06433203631647211,0.023041123064011598,0.00563057907988098,0.06433203631647211,0.051,-0.073,9.42219,8.437694787979126,0.037,0.018,0.497,0.0,0.0,-0.0,1.0,0.0,0.0,0.0,0.0,0.0,0.045,0.0,0.0,0.0,8.437694787979126,3.931999921798706,False,True,False,True,True,False,False
58,0.58,0.042,0.009,0.565,-0.0027675412129610777,-0.0027675412129610777,0.0013837706064805388,0.9999913573265076,0.002782882,-0.005527403,-0.005542807,-0.003,0.018,0.032,-0.013,-0.034,0.003,8.437694787979126,0.04299259930849075,0.009104534983634949,0.5680049061775208,,,,,,,,0.5502708476386664,0.5477683680476082,0.5682459754329747,0.5450522621499961,96500.0,97100.0,100000.0,95200.0,8.409314393997192,0.06433203631647211,0.023041123064011598,0.00563057907988098,0.06433203631647211,0.051,-0.073,9.42219,8.437694787979126,0.037,0.018,0.497,0.0,0.0,-0.0,1.0,0.0,0.0,0.0,0.0,0.0,0.045,0.0,0.0,0.0,8.437694787979126,3.931999921798706,False,True,False,True,True,False,False
59,0.59,0.042,0.009,0.565,-0.0027675412129610777,-0.0027675412129610777,0.0013837706064805388,0.9999913573265076,0.002782882,-0.005527403,-0.005542807,-0.003,0.018,0.032,-0.013,-0.034,0.003,8.437694787979126,0.04299259930849075,0.009104534983634949,0.5680049061775208,,,,,,,,0.5502708476386664,0.5477683680476082,0.5682459754329747,0.5450522621499961,96500.0,97100.0,100000.0,95200.0,8.409314393997192,0.06433203631647211,0.023041123064011598,0.00563057907988098,0.06433203631647211,0.051,-0.073,9.42219,8.437694787979126,0.037,0.018,0.497,0.0,0.0,-0.0,1.0,0.0,0.0,0.0,0.0,0.0,0.045,0.0,0.0,0.0,8.437694787979126,3.931999921798706,False,True,False,True,True,False,False
60,0.6,0.042,0.009,0.565,-0.0027675412129610777,-0.0027675412129610777,0.0013837706064805388,0.9999913573265076,0.002782882,-0.005527403,-0.005542807,-0.003,0.018,0.032,-0.013,-0.034,0.003,8.437694787979126,0.04299259930849075,0.009104534983634949,0.5680049061775208,,,,,,,,0.5502708476386664,0.5477683680476082,0.5682459754329747,0.5450522621499961,96500.0,97100.0,100000.0,95200.0,8.409314393997192,0.06433203631647211,0.023041123064011598,0.00563057907988098,0.06433203631647211,0.051,-0.073,9.42219,8.437694787979126,0.037,0.018,0.497,0.0,0.0,-0.0,1.0,0.0,0.0,0.0,0.0,0.0,0.045,0.0,0.0,0.0,8.437694787979126,3.931999921798706,False,True,False,True,True,False,False
61,0.61,0.042,0.009,0.565,-0.0027675412129610777,-0.0027675412129610777,0.0013837706064805388,0.9999913573265076,0.002782882,-0.005527403,-0.005542807,-0.003,0.018,0.032,-0.013,-0.034,0.003,8.437694787979126,0.04299259930849075,0.009104534983634949,0.5680049061775208,,,,,,,,0.5502708476386664,0.5477683680476082,0.5682459754329747,0.5450522621499961,96500.0,97100.0,100000.0,95200.0,8.409314393997192,0.06433203631647211,0.023041123064011598,0.00563057907988098,0.06433203631647211,0.051,-0.073,9.42219,8.437694787979126,0.037,0.018,0.497,0.0,0.0,-0.0,1.0,0.0,0.0,0.0,0.0,0.0,0.045,0.0,0.0,0.0,8.437694787979126,3.931999921798706,False,True,False,True,True,False,False
62,0.62,0.042,0.009,0.565,-0.0027675412129610777,-0.0027675412129610777,0.0013837706064805388,0.9999913573265076,0.002782882,-0.005527403,-0.005542807,-0.003,0.018,0.032,-0.013,-0.034,0.003,8.437694787979126,0.04299259930849075,0.009104534983634949,0.5680049061775208,,,,,,,,0.5502708476386664,0.5477683680476082,0.5682459754329747,0.5450522621499961,96500.0,97100.0,100000.0,95200.0,8.409314393997192,0.06433203631647211,0.023041123064011598,0.00563057907988098,0.06433203631647211,0.051,-0.073,9.42219,8.437694787979126,0.037,0.018,0.497,0.0,0.0,-0.0,1.0,0.0,0.0,0.0,0.0,0.0,0.045,0.0,0.0,0.0,8.437694787979126,3.931999921798706,False,True,False,True,True,False,False
63,0.63,0.042,0.009,0.565,-0.0027675412129610777,-0.0027675412129610777,0.0013837706064805388,0.9999913573265076,0.002782882,-0.005527403,-0.005542807,-0.003,0.018,0.032,-0.013,-0.034,0.003,8.437694787979126,0.04299259930849075,0.009104534983634949,0.5680049061775208,,,,,,,,0.5502708476386664,0.5477683680476082,0.5682459754329747,0.5450522621499961,96500.0,97100.0,100000.0,95200.0,8.409314393997192,0.06433203631647211,0.023041123064011598,0.00563057907988098,0.06433203631647211,0.051,-0.073,9.42219,8.437694787979126,0.037,0.018,0.497,0.0,0.0,-0.0,1.0,0.0,0.0,0.0,0.0,0.0,0.045,0.0,0.0,0.0,8.437694787979126,3.931999921798706,False,True,False,True,True,False,False
64,0.64,0.042,0.009,0.565,-0.0027675412129610777,-0.0027675412129610777,0.0013837706064805388,0.9999913573265076,0.002782882,-0.005527403,-0.005542807,-0.003,0.018,0.032,-0.013,-0.034,0.003,8.437694787979126,0.04299259930849075,0.009104534983634949,0.5680049061775208,,,,,,,,0.5502708476386664,0.5477683680476082,0.5682459754329747,0.5450522621499961,96500.0,97100.0,100000.0,95200.0,8.409314393997192,0.06433203631647211,0.023041123064011598,0.00563057907988098,0.06433203631647211,0.051,-0.073,9.42219,8.437694787979126,0.037,0.018,0.497,0.0,0.0,-0.0,1.0,0.0,0.0,0.0,0.0,0.0,0.045,0.0,0.0,0.0,8.437694787979126,3.931999921798706,False,True,False,True,True,False,False
65,0.65,0.042,0.009,0.565,-0.0027675412129610777,-0.0027675412129610777,0.0013837706064805388,0.9999913573265076,0.002782882,-0.005527403,-0.005542807,-0.003,0.018,0.032,-0.013,-0.034,0.003,8.437694787979126,0.04299259930849075,0.009104534983634949,0.5680049061775208,,,,,,,,0.5502708476386664,0.5477683680476082,0.5682459754329747,0.5450522621499961,96500.0,97100.0,100000.0,95200.0,8.409314393997192,0.06433203631647211,0.023041123064011598,0.00563057907988098,0.06433203631647211,0.051,-0.073,9.42219,8.437694787979126,0.037,0.018,0.497,0.0,0.0,-0.0,1.0,0.0,0.0,0.0,0.0,0.0,0.045,0.0,0.0,0.0,8.437694787979126,3.931999921798706,False,True,False,True,True,False,False
66,0.66,0.042,0.009,0.565,-0.0027675412129610777,-0.0027675412129610777,0.0013837706064805388,0.9999913573265076,0.002782882,-0.005527403,-0.005542807,-0.003,0.018,0.032,-0.013,-0.034,0.003,8.437694787979126,0.04299259930849075,0.009104534983634949,0.5680049061775208,,,,,,,,0.5502708476386664,0.5477683680476082,0.5682459754329747,0.5450522621499961,96500.0,97100.0,100000.0,95200.0,8.409314393997192,0.06433203631647211,0.023041123064011598,0.00563057907988098,0.06433203631647211,0.051,-0.073,9.42219,8.437694787979126,0.037,0.018,0.497,0.0,0.0,-0.0,1.0,0.0,0.0,0.0,0.0,0.0,0.045,0.0,0.0,0.0,8.437694787979126,3.931999921798706,False,True,False,True,True,False,False
67,0.67,0.042,0.009,0.565,-0.0027675412129610777,-0.0027675412129610777,0.0013837706064805388,0.9999913573265076,0.002782882,-0.005527403,-0.005542807,-0.003,0.018,0.032,-0.013,-0.034,0.003,8.437694787979126,0.04299259930849075,0.009104534983634949,0.5680049061775208,,,,,,,,0.5502708476386664,0.5477683680476082,0.5682459754329747,0.5450522621499961,96500.0,97100.0,100000.0,95200.0,8.409314393997192,0.06433203631647211,0.023041123064011598,0.00563057907988098,0.06433203631647211,0.051,-0.073,9.42219,8.437694787979126,0.037,0.018,0.497,0.0,0.0,-0.0,1.0,0.0,0.0,0.0,0.0,0.0,0.045,0.0,0.0,0.0,8.437694787979126,3.931999921798706,False,True,False,True,True,False,False
68,0.68,0.043,0.011,0.573,-0.0013837706064805388,-0.0027675412129610777,0.0027675412129610777,0.9999913573265076,0.005542807,-0.005527403,-0.002782882,-0.006,0.025,0.056,0.023,0.005,0.004,8.835543870925903,0.04442857578396797,0.012168746441602707,0.5750988125801086,,,,,,,,0.5395132372014954,0.5230640115968567,0.5480582894636454,0.5283131151293202,96800.0,96800.0,99000.0,96800.0,8.80716347694397,0.4383154039826047,-0.0027618829633020525,0.013763637750820172,0.4383154039826047,0.05,-0.071,9.770190000000001,8.835543870925903,0.037,0.018,0.5,0.0,0.0,-0.0,1.0,0.0,0.0,0.0,0.0,0.0,0.0,0.0,0.0,0.0,8.835543870925903,3.953000068664551,False,True,False,True,True,False,False
69,0.6900000000000001,0.043,0.011,0.573,-0.0013837706064805388,-0.0027675412129610777,0.0027675412129610777,0.9999913573265076,0.005542807,-0.005527403,-0.002782882,-0.006,0.025,0.056,0.023,0.005,0.004,8.835543870925903,0.04442857578396797,0.012168746441602707,0.5750988125801086,,,,,,,,0.5395132372014954,0.5230640115968567,0.5480582894636454,0.5283131151293202,96800.0,96800.0,99000.0,96800.0,8.80716347694397,0.4383154039826047,-0.0027618829633020525,0.013763637750820172,0.4383154039826047,0.05,-0.071,9.770190000000001,8.835543870925903,0.037,0.018,0.5,0.0,0.0,-0.0,1.0,0.0,0.0,0.0,0.0,0.0,0.0,0.0,0.0,0.0,8.835543870925903,3.953000068664551,False,True,False,True,True,False,False
70,0.7000000000000001,0.043,0.011,0.573,-0.0013837706064805388,-0.0027675412129610777,0.0027675412129610777,0.9999913573265076,0.005542807,-0.005527403,-0.002782882,-0.006,0.025,0.056,0.023,0.005,0.004,8.835543870925903,0.04442857578396797,0.012168746441602707,0.5750988125801086,,,,,,,,0.5395132372014954,0.5230640115968567,0.5480582894636454,0.5283131151293202,96800.0,96800.0,99000.0,96800.0,8.80716347694397,0.4383154039826047,-0.0027618829633020525,0.013763637750820172,0.4383154039826047,0.05,-0.071,9.770190000000001,8.835543870925903,0.037,0.018,0.5,0.0,0.0,-0.0,1.0,0.0,0.0,0.0,0.0,0.0,0.0,0.0,0.0,0.0,8.835543870925903,3.953000068664551,False,True,False,True,True,False,False
71,0.71,0.043,0.011,0.573,-0.0013837706064805388,-0.0027675412129610777,0.0027675412129610777,0.9999913573265076,0.005542807,-0.005527403,-0.002782882,-0.006,0.025,0.056,0.023,0.005,0.004,8.835543870925903,0.04442857578396797,0.012168746441602707,0.5750988125801086,,,,,,,,0.5395132372014954,0.5230640115968567,0.5480582894636454,0.5283131151293202,96800.0,96800.0,99000.0,96800.0,8.80716347694397,0.4383154039826047,-0.0027618829633020525,0.013763637750820172,0.4383154039826047,0.05,-0.071,9.770190000000001,8.835543870925903,0.037,0.018,0.5,0.0,0.0,-0.0,1.0,0.0,0.0,0.0,0.0,0.0,0.0,0.0,0.0,0.0,8.835543870925903,3.953000068664551,False,True,False,True,True,False,False
72,0.72,0.043,0.011,0.573,-0.0013837706064805388,-0.0027675412129610777,0.0027675412129610777,0.9999913573265076,0.005542807,-0.005527403,-0.002782882,-0.006,0.025,0.056,0.023,0.005,0.004,8.835543870925903,0.04442857578396797,0.012168746441602707,0.5750988125801086,,,,,,,,0.5395132372014954,0.5230640115968567,0.5480582894636454,0.5283131151293202,96800.0,96800.0,99000.0,96800.0,8.80716347694397,0.4383154039826047,-0.0027618829633020525,0.013763637750820172,0.4383154039826047,0.05,-0.071,9.770190000000001,8.835543870925903,0.037,0.018,0.5,0.0,0.0,-0.0,1.0,0.0,0.0,0.0,0.0,0.0,0.0,0.0,0.0,0.0,8.835543870925903,3.953000068664551,False,True,False,True,True,False,False
73,0.73,0.043,0.011,0.573,-0.0013837706064805388,-0.0027675412129610777,0.0027675412129610777,0.9999913573265076,0.005542807,-0.005527403,-0.002782882,-0.006,0.025,0.056,0.023,0.005,0.004,8.835543870925903,0.04442857578396797,0.012168746441602707,0.5750988125801086,,,,,,,,0.5395132372014954,0.5230640115968567,0.5480582894636454,0.5283131151293202,96800.0,96800.0,99000.0,96800.0,8.80716347694397,0.4383154039826047,-0.0027618829633020525,0.013763637750820172,0.4383154039826047,0.05,-0.071,9.770190000000001,8.835543870925903,0.037,0.018,0.5,0.0,0.0,-0.0,1.0,0.0,0.0,0.0,0.0,0.0,0.0,0.0,0.0,0.0,8.835543870925903,3.953000068664551,False,True,False,True,True,False,False
74,0.74,0.043,0.011,0.573,-0.0013837706064805388,-0.0027675412129610777,0.0027675412129610777,0.9999913573265076,0.005542807,-0.005527403,-0.002782882,-0.006,0.025,0.056,0.023,0.005,0.004,8.835543870925903,0.04442857578396797,0.012168746441602707,0.5750988125801086,,,,,,,,0.5395132372014954,0.5230640115968567,0.5480582894636454,0.5283131151293202,96800.0,96800.0,99000.0,96800.0,8.80716347694397,0.4383154039826047,-0.0027618829633020525,0.013763637750820172,0.4383154039826047,0.05,-0.071,9.770190000000001,8.835543870925903,0.037,0.018,0.5,0.0,0.0,-0.0,1.0,0.0,0.0,0.0,0.0,0.0,0.0,0.0,0.0,0.0,8.835543870925903,3.953000068664551,False,True,False,True,True,False,False
75,0.75,0.043,0.011,0.573,-0.0013837706064805388,-0.0027675412129610777,0.0027675412129610777,0.9999913573265076,0.005542807,-0.005527403,-0.002782882,-0.006,0.025,0.056,0.023,0.005,0.004,8.835543870925903,0.04442857578396797,0.012168746441602707,0.5750988125801086,,,,,,,,0.5395132372014954,0.5230640115968567,0.5480582894636454,0.5283131151293202,96800.0,96800.0,99000.0,96800.0,8.80716347694397,0.4383154039826047,-0.0027618829633020525,0.013763637750820172,0.4383154039826047,0.05,-0.071,9.770190000000001,8.835543870925903,0.037,0.018,0.5,0.0,0.0,-0.0,1.0,0.0,0.0,0.0,0.0,0.0,0.0,0.0,0.0,0.0,8.835543870925903,3.953000068664551,False,True,False,True,True,False,False
76,0.76,0.043,0.011,0.573,-0.0013837706064805388,-0.0027675412129610777,0.0027675412129610777,0.9999913573265076,0.005542807,-0.005527403,-0.002782882,-0.006,0.025,0.056,0.023,0.005,0.004,8.835543870925903,0.04442857578396797,0.012168746441602707,0.5750988125801086,,,,,,,,0.5395132372014954,0.5230640115968567,0.5480582894636454,0.5283131151293202,96800.0,96800.0,99000.0,96800.0,8.80716347694397,0.4383154039826047,-0.0027618829633020525,0.013763637750820172,0.4383154039826047,0.05,-0.071,9.770190000000001,8.835543870925903,0.037,0.018,0.5,0.0,0.0,-0.0,1.0,0.0,0.0,0.0,0.0,0.0,0.0,0.0,0.0,0.0,8.835543870925903,3.953000068664551,False,True,False,True,True,False,False
77,0.77,0.043,0.011,0.573,-0.0013837706064805388,-0.0027675412129610777,0.0027675412129610777,0.9999913573265076,0.005542807,-0.005527403,-0.002782882,-0.006,0.025,0.056,0.023,0.005,0.004,8.835543870925903,0.04442857578396797,0.012168746441602707,0.5750988125801086,,,,,,,,0.5395132372014954,0.5230640115968567,0.5480582894636454,0.5283131151293202,96800.0,96800.0,99000.0,96800.0,8.80716347694397,0.4383154039826047,-0.0027618829633020525,0.013763637750820172,0.4383154039826047,0.05,-0.071,9.770190000000001,8.835543870925903,0.037,0.018,0.5,0.0,0.0,-0.0,1.0,0.0,0.0,0.0,0.0,0.0,0.0,0.0,0.0,0.0,8.835543870925903,3.953000068664551,False,True,False,True,True,False,False
78,0.78,0.043,0.011,0.573,-0.0013837706064805388,-0.0027675412129610777,0.0027675412129610777,0.9999913573265076,0.005542807,-0.005527403,-0.002782882,-0.006,0.025,0.056,0.023,0.005,0.004,8.835543870925903,0.04442857578396797,0.012168746441602707,0.5750988125801086,,,,,,,,0.5395132372014954,0.5230640115968567,0.5480582894636454,0.5283131151293202,96800.0,96800.0,99000.0,96800.0,8.80716347694397,0.4383154039826047,-0.0027618829633020525,0.013763637750820172,0.4383154039826047,0.05,-0.071,9.770190000000001,8.835543870925903,0.037,0.018,0.5,0.0,0.0,-0.0,1.0,0.0,0.0,0.0,0.0,0.0,0.0,0.0,0.0,0.0,8.835543870925903,3.953000068664551,False,True,False,True,True,False,False
79,0.79,0.043,0.011,0.573,-0.0013837706064805388,-0.0027675412129610777,0.0027675412129610777,0.9999913573265076,0.005542807,-0.005527403,-0.002782882,-0.006,0.025,0.056,0.023,0.005,0.004,8.835543870925903,0.04442857578396797,0.012168746441602707,0.5750988125801086,,,,,,,,0.5395132372014954,0.5230640115968567,0.5480582894636454,0.5283131151293202,96800.0,96800.0,99000.0,96800.0,8.80716347694397,0.4383154039826047,-0.0027618829633020525,0.013763637750820172,0.4383154039826047,0.05,-0.071,9.770190000000001,8.835543870925903,0.037,0.018,0.5,0.0,0.0,-0.0,1.0,0.0,0.0,0.0,0.0,0.0,0.0,0.0,0.0,0.0,8.835543870925903,3.953000068664551,False,True,False,True,True,False,False
80,0.8,0.043,0.011,0.573,-0.0013837706064805388,-0.0027675412129610777,0.0027675412129610777,0.9999913573265076,0.005542807,-0.005527403,-0.002782882,-0.006,0.025,0.056,0.023,0.005,0.004,8.835543870925903,0.04442857578396797,0.012168746441602707,0.5750988125801086,,,,,,,,0.5395132372014954,0.5230640115968567,0.5480582894636454,0.5283131151293202,96800.0,96800.0,99000.0,96800.0,8.80716347694397,0.4383154039826047,-0.0027618829633020525,0.013763637750820172,0.4383154039826047,0.05,-0.071,9.770190000000001,8.835543870925903,0.037,0.018,0.5,0.0,0.0,-0.0,1.0,0.0,0.0,0.0,0.0,0.0,0.0,0.0,0.0,0.0,8.835543870925903,3.953000068664551,False,True,False,True,True,False,False
81,0.81,0.043,0.011,0.573,-0.0013837706064805388,-0.0027675412129610777,0.0027675412129610777,0.9999913573265076,0.005542807,-0.005527403,-0.002782882,-0.006,0.025,0.056,0.023,0.005,0.004,8.835543870925903,0.04442857578396797,0.012168746441602707,0.5750988125801086,,,,,,,,0.5395132372014954,0.5230640115968567,0.5480582894636454,0.5283131151293202,96800.0,96800.0,99000.0,96800.0,8.80716347694397,0.4383154039826047,-0.0027618829633020525,0.013763637750820172,0.4383154039826047,0.05,-0.071,9.770190000000001,8.835543870925903,0.037,0.018,0.5,0.0,0.0,-0.0,1.0,0.0,0.0,0.0,0.0,0.0,0.0,0.0,0.0,0.0,8.835543870925903,3.953000068664551,False,True,False,True,True,False,False
82,0.8200000000000001,0.043,0.011,0.573,-0.0013837706064805388,-0.0027675412129610777,0.0027675412129610777,0.9999913573265076,0.005542807,-0.005527403,-0.002782882,-0.006,0.025,0.056,0.023,0.005,0.004,8.835543870925903,0.04442857578396797,0.012168746441602707,0.5750988125801086,,,,,,,,0.5395132372014954,0.5230640115968567,0.5480582894636454,0.5283131151293202,96800.0,96800.0,99000.0,96800.0,8.80716347694397,0.4383154039826047,-0.0027618829633020525,0.013763637750820172,0.4383154039826047,0.05,-0.071,9.770190000000001,8.835543870925903,0.037,0.018,0.5,0.0,0.0,-0.0,1.0,0.0,0.0,0.0,0.0,0.0,0.0,0.0,0.0,0.0,8.835543870925903,3.953000068664551,False,True,False,True,True,False,False
83,0.8300000000000001,0.043,0.011,0.573,-0.0013837706064805388,-0.0027675412129610777,0.0027675412129610777,0.9999913573265076,0.005542807,-0.005527403,-0.002782882,-0.006,0.025,0.056,0.023,0.005,0.004,8.835543870925903,0.04442857578396797,0.012168746441602707,0.5750988125801086,,,,,,,,0.5395132372014954,0.5230640115968567,0.5480582894636454,0.5283131151293202,96800.0,96800.0,99000.0,96800.0,8.80716347694397,0.4383154039826047,-0.0027618829633020525,0.013763637750820172,0.4383154039826047,0.05,-0.071,9.770190000000001,8.835543870925903,0.037,0.018,0.5,0.0,0.0,-0.0,1.0,0.0,0.0,0.0,0.0,0.0,0.0,0.0,0.0,0.0,8.835543870925903,3.953000068664551,False,True,False,True,True,False,False
84,0.84,0.043,0.011,0.573,-0.0013837706064805388,-0.0027675412129610777,0.0027675412129610777,0.9999913573265076,0.005542807,-0.005527403,-0.002782882,-0.006,0.025,0.056,0.023,0.005,0.004,8.835543870925903,0.04442857578396797,0.012168746441602707,0.5750988125801086,,,,,,,,0.5395132372014954,0.5230640115968567,0.5480582894636454,0.5283131151293202,96800.0,96800.0,99000.0,96800.0,8.80716347694397,0.4383154039826047,-0.0027618829633020525,0.013763637750820172,0.4383154039826047,0.05,-0.071,9.770190000000001,8.835543870925903,0.037,0.018,0.5,0.0,0.0,-0.0,1.0,0.0,0.0,0.0,0.0,0.0,0.0,0.0,0.0,0.0,8.835543870925903,3.953000068664551,False,True,False,True,True,False,False
85,0.85,0.043,0.011,0.573,-0.0013837706064805388,-0.0027675412129610777,0.0027675412129610777,0.9999913573265076,0.005542807,-0.005527403,-0.002782882,-0.006,0.025,0.056,0.023,0.005,0.004,8.835543870925903,0.04442857578396797,0.012168746441602707,0.5750988125801086,,,,,,,,0.5395132372014954,0.5230640115968567,0.5480582894636454,0.5283131151293202,96800.0,96800.0,99000.0,96800.0,8.80716347694397,0.4383154039826047,-0.0027618829633020525,0.013763637750820172,0.4383154039826047,0.05,-0.071,9.770190000000001,8.835543870925903,0.037,0.018,0.5,0.0,0.0,-0.0,1.0,0.0,0.0,0.0,0.0,0.0,0.0,0.0,0.0,0.0,8.835543870925903,3.953000068664551,False,True,False,True,True,False,False
86,0.86,0.043,0.011,0.573,-0.0013837706064805388,-0.0027675412129610777,0.0027675412129610777,0.9999913573265076,0.005542807,-0.005527403,-0.002782882,-0.006,0.025,0.056,0.023,0.005,0.004,8.835543870925903,0.04442857578396797,0.012168746441602707,0.5750988125801086,,,,,,,,0.5395132372014954,0.5230640115968567,0.5480582894636454,0.5283131151293202,96800.0,96800.0,99000.0,96800.0,8.80716347694397,0.4383154039826047,-0.0027618829633020525,0.013763637750820172,0.4383154039826047,0.05,-0.071,9.770190000000001,8.835543870925903,0.037,0.018,0.5,0.0,0.0,-0.0,1.0,0.0,0.0,0.0,0.0,0.0,0.0,0.0,0.0,0.0,8.835543870925903,3.953000068664551,False,True,False,True,True,False,False
87,0.87,0.043,0.011,0.573,-0.0013837706064805388,-0.0027675412129610777,0.0027675412129610777,0.9999913573265076,0.005542807,-0.005527403,-0.002782882,-0.006,0.025,0.056,0.023,0.005,0.004,8.835543870925903,0.04442857578396797,0.012168746441602707,0.5750988125801086,,,,,,,,0.5395132372014954,0.5230640115968567,0.5480582894636454,0.5283131151293202,96800.0,96800.0,99000.0,96800.0,8.80716347694397,0.4383154039826047,-0.0027618829633020525,0.013763637750820172,0.4383154039826047,0.05,-0.071,9.770190000000001,8.835543870925903,0.037,0.018,0.5,0.0,0.0,-0.0,1.0,0.0,0.0,0.0,0.0,0.0,0.0,0.0,0.0,0.0,8.835543870925903,3.953000068664551,False,True,False,True,True,False,False
88,0.88,0.043,0.011,0.573,-0.0013837706064805388,-0.0027675412129610777,0.0027675412129610777,0.9999913573265076,0.005542807,-0.005527403,-0.002782882,-0.006,0.025,0.056,0.023,0.005,0.004,8.835543870925903,0.04442857578396797,0.012168746441602707,0.5750988125801086,,,,,,,,0.5395132372014954,0.5230640115968567,0.5480582894636454,0.5283131151293202,96800.0,96800.0,99000.0,96800.0,8.80716347694397,0.4383154039826047,-0.0027618829633020525,0.013763637750820172,0.4383154039826047,0.05,-0.071,9.770190000000001,8.835543870925903,0.037,0.018,0.5,0.0,0.0,-0.0,1.0,0.0,0.0,0.0,0.0,0.0,0.0,0.0,0.0,0.0,8.835543870925903,3.953000068664551,False,True,False,True,True,False,False
89,0.89,0.043,0.011,0.573,-0.0013837706064805388,-0.0027675412129610777,0.0027675412129610777,0.9999913573265076,0.005542807,-0.005527403,-0.002782882,-0.006,0.025,0.056,0.023,0.005,0.004,8.835543870925903,0.04442857578396797,0.012168746441602707,0.5750988125801086,,,,,,,,0.5395132372014954,0.5230640115968567,0.5480582894636454,0.5283131151293202,96800.0,96800.0,99000.0,96800.0,8.80716347694397,0.4383154039826047,-0.0027618829633020525,0.013763637750820172,0.4383154039826047,0.05,-0.071,9.770190000000001,8.835543870925903,0.037,0.018,0.5,0.0,0.0,-0.0,1.0,0.0,0.0,0.0,0.0,0.0,0.0,0.0,0.0,0.0,8.835543870925903,3.953000068664551,False,True,False,True,True,False,False
90,0.9,0.043,0.011,0.573,-0.0013837706064805388,-0.0027675412129610777,0.0027675412129610777,0.9999913573265076,0.005542807,-0.005527403,-0.002782882,-0.006,0.025,0.056,0.023,0.005,0.004,8.835543870925903,0.04442857578396797,0.012168746441602707,0.5750988125801086,,,,,,,,0.5395132372014954,0.5230640115968567,0.5480582894636454,0.5283131151293202,96800.0,96800.0,99000.0,96800.0,8.80716347694397,0.4383154039826047,-0.0027618829633020525,0.013763637750820172,0.4383154039826047,0.05,-0.071,9.770190000000001,8.835543870925903,0.037,0.018,0.5,0.0,0.0,-0.0,1.0,0.0,0.0,0.0,0.0,0.0,0.0,0.0,0.0,0.0,8.835543870925903,3.953000068664551,False,True,False,True,True,False,False
91,0.91,0.044,0.014,0.579,0.0013837706064805388,-0.0013837706064805388,0.0027675412129610777,0.9999942779541016,0.0055312705,-0.002775188,0.0027598804,-0.007,0.017,0.013,-0.024,0.05,0.001,8.877690315246582,0.045122914016246796,0.015125111676752567,0.5803865790367126,,,,,,,,0.5415274280918593,0.5111619745174334,0.5389333943694209,0.5429312581063553,97400.0,96200.0,98700.0,96500.0,8.90310525894165,0.9327077134355688,-0.01654077973601892,0.008407721065079728,0.9327077134355688,0.044,-0.133,9.96319,8.877690315246582,0.037,0.018,0.5,0.0,0.0,-0.0,1.0,0.0,0.0,0.0,0.0,0.0,0.0,0.0,0.0,0.0,8.877690315246582,3.9210000038146973,False,True,False,True,True,False,False
92,0.92,0.044,0.014,0.579,0.0013837706064805388,-0.0013837706064805388,0.0027675412129610777,0.9999942779541016,0.0055312705,-0.002775188,0.0027598804,-0.007,0.017,0.013,-0.024,0.05,0.001,8.877690315246582,0.045122914016246796,0.015125111676752567,0.5803865790367126,,,,,,,,0.5415274280918593,0.5111619745174334,0.5389333943694209,0.5429312581063553,97400.0,96200.0,98700.0,96500.0,8.90310525894165,0.9327077134355688,-0.01654077973601892,0.008407721065079728,0.9327077134355688,0.044,-0.133,9.96319,8.877690315246582,0.037,0.018,0.5,0.0,0.0,-0.0,1.0,0.0,0.0,0.0,0.0,0.0,0.0,0.0,0.0,0.0,8.877690315246582,3.9210000038146973,False,True,False,True,True,False,False
93,0.93,0.044,0.014,0.579,0.0013837706064805388,-0.0013837706064805388,0.0027675412129610777,0.9999942779541016,0.0055312705,-0.002775188,0.0027598804,-0.007,0.017,0.013,-0.024,0.05,0.001,8.877690315246582,0.045122914016246796,0.015125111676752567,0.5803865790367126,,,,,,,,0.5415274280918593,0.5111619745174334,0.5389333943694209,0.5429312581063553,97400.0,96200.0,98700.0,96500.0,8.90310525894165,0.9327077134355688,-0.01654077973601892,0.008407721065079728,0.9327077134355688,0.044,-0.133,9.96319,8.877690315246582,0.037,0.018,0.5,0.0,0.0,-0.0,1.0,0.0,0.0,0.0,0.0,0.0,0.0,0.0,0.0,0.0,8.877690315246582,3.9210000038146973,False,True,False,True,True,False,False
94,0.9400000000000001,0.044,0.014,0.579,0.0013837706064805388,-0.0013837706064805388,0.0027675412129610777,0.9999942779541016,0.0055312705,-0.002775188,0.0027598804,-0.007,0.017,0.013,-0.024,0.05,0.001,8.877690315246582,0.045122914016246796,0.015125111676752567,0.5803865790367126,,,,,,,,0.5415274280918593,0.5111619745174334,0.5389333943694209,0.5429312581063553,97400.0,96200.0,98700.0,96500.0,8.90310525894165,0.9327077134355688,-0.01654077973601892,0.008407721065079728,0.9327077134355688,0.044,-0.133,9.96319,8.877690315246582,0.037,0.018,0.5,0.0,0.0,-0.0,1.0,0.0,0.0,0.0,0.0,0.0,0.0,0.0,0.0,0.0,8.877690315246582,3.9210000038146973,False,True,False,True,True,False,False
95,0.9500000000000001,0.044,0.014,0.579,0.0013837706064805388,-0.0013837706064805388,0.0027675412129610777,0.9999942779541016,0.0055312705,-0.002775188,0.0027598804,-0.007,0.017,0.013,-0.024,0.05,0.001,8.877690315246582,0.045122914016246796,0.015125111676752567,0.5803865790367126,,,,,,,,0.5415274280918593,0.5111619745174334,0.5389333943694209,0.5429312581063553,97400.0,96200.0,98700.0,96500.0,8.90310525894165,0.9327077134355688,-0.01654077973601892,0.008407721065079728,0.9327077134355688,0.044,-0.133,9.96319,8.877690315246582,0.037,0.018,0.5,0.0,0.0,-0.0,1.0,0.0,0.0,0.0,0.0,0.0,0.0,0.0,0.0,0.0,8.877690315246582,3.9210000038146973,False,True,False,True,True,False,False
96,0.96,0.044,0.014,0.579,0.0013837706064805388,-0.0013837706064805388,0.0027675412129610777,0.9999942779541016,0.0055312705,-0.002775188,0.0027598804,-0.007,0.017,0.013,-0.024,0.05,0.001,8.877690315246582,0.045122914016246796,0.015125111676752567,0.5803865790367126,,,,,,,,0.5415274280918593,0.5111619745174334,0.5389333943694209,0.5429312581063553,97400.0,96200.0,98700.0,96500.0,8.90310525894165,0.9327077134355688,-0.01654077973601892,0.008407721065079728,0.9327077134355688,0.044,-0.133,9.96319,8.877690315246582,0.037,0.018,0.5,0.0,0.0,-0.0,1.0,0.0,0.0,0.0,0.0,0.0,0.0,0.0,0.0,0.0,8.877690315246582,3.9210000038146973,False,True,False,True,True,False,False
97,0.97,0.044,0.014,0.579,0.0013837706064805388,-0.0013837706064805388,0.0027675412129610777,0.9999942779541016,0.0055312705,-0.002775188,0.0027598804,-0.007,0.017,0.013,-0.024,0.05,0.001,8.877690315246582,0.045122914016246796,0.015125111676752567,0.5803865790367126,,,,,,,,0.5415274280918593,0.5111619745174334,0.5389333943694209,0.5429312581063553,97400.0,96200.0,98700.0,96500.0,8.90310525894165,0.9327077134355688,-0.01654077973601892,0.008407721065079728,0.9327077134355688,0.044,-0.133,9.96319,8.877690315246582,0.037,0.018,0.5,0.0,0.0,-0.0,1.0,0.0,0.0,0.0,0.0,0.0,0.0,0.0,0.0,0.0,8.877690315246582,3.9210000038146973,False,True,False,True,True,False,False
98,0.98,0.044,0.014,0.579,0.0013837706064805388,-0.0013837706064805388,0.0027675412129610777,0.9999942779541016,0.0055312705,-0.002775188,0.0027598804,-0.007,0.017,0.013,-0.024,0.05,0.001,8.877690315246582,0.045122914016246796,0.015125111676752567,0.5803865790367126,,,,,,,,0.5415274280918593,0.5111619745174334,0.5389333943694209,0.5429312581063553,97400.0,96200.0,98700.0,96500.0,8.90310525894165,0.9327077134355688,-0.01654077973601892,0.008407721065079728,0.9327077134355688,0.044,-0.133,9.96319,8.877690315246582,0.037,0.018,0.5,0.0,0.0,-0.0,1.0,0.0,0.0,0.0,0.0,0.0,0.0,0.0,0.0,0.0,8.877690315246582,3.9210000038146973,False,True,False,True,True,False,False
99,0.99,0.044,0.014,0.579,0.0013837706064805388,-0.0013837706064805388,0.0027675412129610777,0.9999942779541016,0.0055312705,-0.002775188,0.0027598804,-0.007,0.017,0.013,-0.024,0.05,0.001,8.877690315246582,0.045122914016246796,0.015125111676752567,0.5803865790367126,,,,,,,,0.5415274280918593,0.5111619745174334,0.5389333943694209,0.5429312581063553,97400.0,96200.0,98700.0,96500.0,8.90310525894165,0.9327077134355688,-0.01654077973601892,0.008407721065079728,0.9327077134355688,0.044,-0.133,9.96319,8.877690315246582,0.037,0.018,0.5,0.0,0.0,-0.0,1.0,0.0,0.0,0.0,0.0,0.0,0.0,0.0,0.0,0.0,8.877690315246582,3.9210000038146973,False,True,False,True,True,False,False
100,1.0,0.044,0.014,0.579,0.0013837706064805388,-0.0013837706064805388,0.0027675412129610777,0.9999942779541016,0.0055312705,-0.002775188,0.0027598804,-0.007,0.017,0.013,-0.024,0.05,0.001,8.877690315246582,0.045122914016246796,0.015125111676752567,0.5803865790367126,,,,,,,,0.5415274280918593,0.5111619745174334,0.5389333943694209,0.5429312581063553,97400.0,96200.0,98700.0,96500.0,8.90310525894165,0.9327077134355688,-0.01654077973601892,0.008407721065079728,0.9327077134355688,0.044,-0.133,9.96319,8.877690315246582,0.037,0.018,0.5,0.0,0.0,-0.0,1.0,0.0,0.0,0.0,0.0,0.0,0.0,0.0,0.0,0.0,8.877690315246582,3.9210000038146973,False,True,False,True,True,False,False
101,1.01,0.044,0.014,0.579,0.0013837706064805388,-0.0013837706064805388,0.0027675412129610777,0.9999942779541016,0.0055312705,-0.002775188,0.0027598804,-0.007,0.017,0.013,-0.024,0.05,0.001,8.877690315246582,0.045122914016246796,0.015125111676752567,0.5803865790367126,,,,,,,,0.5415274280918593,0.5111619745174334,0.5389333943694209,0.5429312581063553,97400.0,96200.0,98700.0,96500.0,8.90310525894165,0.9327077134355688,-0.01654077973601892,0.008407721065079728,0.9327077134355688,0.044,-0.133,9.96319,8.877690315246582,0.037,0.018,0.5,0.0,0.0,-0.0,1.0,0.0,0.0,0.0,0.0,0.0,0.0,0.0,0.0,0.0,8.877690315246582,3.9210000038146973,False,True,False,True,True,False,False
102,1.02,0.044,0.014,0.579,0.0013837706064805388,-0.0013837706064805388,0.0027675412129610777,0.9999942779541016,0.0055312705,-0.002775188,0.0027598804,-0.007,0.017,0.013,-0.024,0.05,0.001,8.877690315246582,0.045122914016246796,0.015125111676752567,0.5803865790367126,,,,,,,,0.5415274280918593,0.5111619745174334,0.5389333943694209,0.5429312581063553,97400.0,96200.0,98700.0,96500.0,8.90310525894165,0.9327077134355688,-0.01654077973601892,0.008407721065079728,0.9327077134355688,0.044,-0.133,9.96319,8.877690315246582,0.037,0.018,0.5,0.0,0.0,-0.0,1.0,0.0,0.0,0.0,0.0,0.0,0.0,0.0,0.0,0.0,8.877690315246582,3.9210000038146973,False,True,False,True,True,False,False
103,1.03,0.044,0.014,0.579,0.0013837706064805388,-0.0013837706064805388,0.0027675412129610777,0.9999942779541016,0.0055312705,-0.002775188,0.0027598804,-0.007,0.017,0.013,-0.024,0.05,0.001,8.877690315246582,0.045122914016246796,0.015125111676752567,0.5803865790367126,,,,,,,,0.5415274280918593,0.5111619745174334,0.5389333943694209,0.5429312581063553,97400.0,96200.0,98700.0,96500.0,8.90310525894165,0.9327077134355688,-0.01654077973601892,0.008407721065079728,0.9327077134355688,0.044,-0.133,9.96319,8.877690315246582,0.037,0.018,0.5,0.0,0.0,-0.0,1.0,0.0,0.0,0.0,0.0,0.0,0.0,0.0,0.0,0.0,8.877690315246582,3.9210000038146973,False,True,False,True,True,False,False
104,1.04,0.044,0.014,0.579,0.0013837706064805388,-0.0013837706064805388,0.0027675412129610777,0.9999942779541016,0.0055312705,-0.002775188,0.0027598804,-0.007,0.017,0.013,-0.024,0.05,0.001,8.877690315246582,0.045122914016246796,0.015125111676752567,0.5803865790367126,,,,,,,,0.5415274280918593,0.5111619745174334,0.5389333943694209,0.5429312581063553,97400.0,96200.0,98700.0,96500.0,8.90310525894165,0.9327077134355688,-0.01654077973601892,0.008407721065079728,0.9327077134355688,0.044,-0.133,9.96319,8.877690315246582,0.037,0.018,0.5,0.0,0.0,-0.0,1.0,0.0,0.0,0.0,0.0,0.0,0.0,0.0,0.0,0.0,8.877690315246582,3.9210000038146973,False,True,False,True,True,False,False
105,1.05,0.044,0.014,0.579,0.0013837706064805388,-0.0013837706064805388,0.0027675412129610777,0.9999942779541016,0.0055312705,-0.002775188,0.0027598804,-0.007,0.017,0.013,-0.024,0.05,0.001,8.877690315246582,0.045122914016246796,0.015125111676752567,0.5803865790367126,,,,,,,,0.5415274280918593,0.5111619745174334,0.5389333943694209,0.5429312581063553,97400.0,96200.0,98700.0,96500.0,8.90310525894165,0.9327077134355688,-0.01654077973601892,0.008407721065079728,0.9327077134355688,0.044,-0.133,9.96319,8.877690315246582,0.037,0.018,0.5,0.0,0.0,-0.0,1.0,0.0,0.0,0.0,0.0,0.0,0.0,0.0,0.0,0.0,8.877690315246582,3.9210000038146973,False,True,False,True,True,False,False
106,1.06,0.044,0.014,0.579,0.0013837706064805388,-0.0013837706064805388,0.0027675412129610777,0.9999942779541016,0.0055312705,-0.002775188,0.0027598804,-0.007,0.017,0.013,-0.024,0.05,0.001,8.877690315246582,0.045122914016246796,0.015125111676752567,0.5803865790367126,,,,,,,,0.5415274280918593,0.5111619745174334,0.5389333943694209,0.5429312581063553,97400.0,96200.0,98700.0,96500.0,8.90310525894165,0.9327077134355688,-0.01654077973601892,0.008407721065079728,0.9327077134355688,0.044,-0.133,9.96319,8.877690315246582,0.037,0.018,0.5,0.0,0.0,-0.0,1.0,0.0,0.0,0.0,0.0,0.0,0.0,0.0,0.0,0.0,8.877690315246582,3.9210000038146973,False,True,False,True,True,False,False
107,1.07,0.044,0.014,0.579,0.0013837706064805388,-0.0013837706064805388,0.0027675412129610777,0.9999942779541016,0.0055312705,-0.002775188,0.0027598804,-0.007,0.017,0.013,-0.024,0.05,0.001,8.877690315246582,0.045122914016246796,0.015125111676752567,0.5803865790367126,,,,,,,,0.5415274280918593,0.5111619745174334,0.5389333943694209,0.5429312581063553,97400.0,96200.0,98700.0,96500.0,8.90310525894165,0.9327077134355688,-0.01654077973601892,0.008407721065079728,0.9327077134355688,0.044,-0.133,9.96319,8.877690315246582,0.037,0.018,0.5,0.0,0.0,-0.0,1.0,0.0,0.0,0.0,0.0,0.0,0.0,0.0,0.0,0.0,8.877690315246582,3.9210000038146973,False,True,False,True,True,False,False
108,1.08,0.044,0.014,0.579,0.0013837706064805388,-0.0013837706064805388,0.0027675412129610777,0.9999942779541016,0.0055312705,-0.002775188,0.0027598804,-0.007,0.017,0.013,-0.024,0.05,0.001,8.877690315246582,0.045122914016246796,0.015125111676752567,0.5803865790367126,,,,,,,,0.5415274280918593,0.5111619745174334,0.5389333943694209,0.5429312581063553,97400.0,96200.0,98700.0,96500.0,8.90310525894165,0.9327077134355688,-0.01654077973601892,0.008407721065079728,0.9327077134355688,0.044,-0.133,9.96319,8.877690315246582,0.037,0.018,0.5,0.0,0.0,-0.0,1.0,0.0,0.0,0.0,0.0,0.0,0.0,0.0,0.0,0.0,8.877690315246582,3.9210000038146973,False,True,False,True,True,False,False
109,1.09,0.044,0.014,0.579,0.0013837706064805388,-0.0013837706064805388,0.0027675412129610777,0.9999942779541016,0.0055312705,-0.002775188,0.0027598804,-0.007,0.017,0.013,-0.024,0.05,0.001,8.877690315246582,0.045122914016246796,0.015125111676752567,0.5803865790367126,,,,,,,,0.5415274280918593,0.5111619745174334,0.5389333943694209,0.5429312581063553,97400.0,96200.0,98700.0,96500.0,8.90310525894165,0.9327077134355688,-0.01654077973601892,0.008407721065079728,0.9327077134355688,0.044,-0.133,9.96319,8.877690315246582,0.037,0.018,0.5,0.0,0.0,-0.0,1.0,0.0,0.0,0.0,0.0,0.0,0.0,0.0,0.0,0.0,8.877690315246582,3.9210000038146973,False,True,False,True,True,False,False
110,1.1,0.044,0.014,0.579,0.0013837706064805388,-0.0013837706064805388,0.0027675412129610777,0.9999942779541016,0.0055312705,-0.002775188,0.0027598804,-0.007,0.017,0.013,-0.024,0.05,0.001,8.877690315246582,0.045122914016246796,0.015125111676752567,0.5803865790367126,,,,,,,,0.5415274280918593,0.5111619745174334,0.5389333943694209,0.5429312581063553,97400.0,96200.0,98700.0,96500.0,8.90310525894165,0.9327077134355688,-0.01654077973601892,0.008407721065079728,0.9327077134355688,0.044,-0.133,9.96319,8.877690315246582,0.037,0.018,0.5,0.0,0.0,-0.0,1.0,0.0,0.0,0.0,0.0,0.0,0.0,0.0,0.0,0.0,8.877690315246582,3.9210000038146973,False,True,False,True,True,False,False
111,1.11,0.044,0.014,0.579,0.0013837706064805388,-0.0013837706064805388,0.0027675412129610777,0.9999942779541016,0.0055312705,-0.002775188,0.0027598804,-0.007,0.017,0.013,-0.024,0.05,0.001,8.877690315246582,0.045122914016246796,0.015125111676752567,0.5803865790367126,,,,,,,,0.5415274280918593,0.5111619745174334,0.5389333943694209,0.5429312581063553,97400.0,96200.0,98700.0,96500.0,8.90310525894165,0.9327077134355688,-0.01654077973601892,0.008407721065079728,0.9327077134355688,0.044,-0.133,9.96319,8.877690315246582,0.037,0.018,0.5,0.0,0.0,-0.0,1.0,0.0,0.0,0.0,0.0,0.0,0.0,0.0,0.0,0.0,8.877690315246582,3.9210000038146973,False,True,False,True,True,False,False
112,1.12,0.044,0.014,0.579,0.0013837706064805388,-0.0013837706064805388,0.0027675412129610777,0.9999942779541016,0.0055312705,-0.002775188,0.0027598804,-0.007,0.017,0.013,-0.024,0.05,0.001,8.877690315246582,0.045122914016246796,0.015125111676752567,0.5803865790367126,,,,,,,,0.5415274280918593,0.5111619745174334,0.5389333943694209,0.5429312581063553,97400.0,96200.0,98700.0,96500.0,8.90310525894165,0.9327077134355688,-0.01654077973601892,0.008407721065079728,0.9327077134355688,0.044,-0.133,9.96319,8.877690315246582,0.037,0.018,0.5,0.0,0.0,-0.0,1.0,0.0,0.0,0.0,0.0,0.0,0.0,0.0,0.0,0.0,8.877690315246582,3.9210000038146973,False,True,False,True,True,False,False
113,1.1300000000000001,0.044,0.014,0.579,0.0013837706064805388,-0.0013837706064805388,0.0027675412129610777,0.9999942779541016,0.0055312705,-0.002775188,0.0027598804,-0.007,0.017,0.013,-0.024,0.05,0.001,8.877690315246582,0.045122914016246796,0.015125111676752567,0.5803865790367126,,,,,,,,0.5415274280918593,0.5111619745174334,0.5389333943694209,0.5429312581063553,97400.0,96200.0,98700.0,96500.0,8.90310525894165,0.9327077134355688,-0.01654077973601892,0.008407721065079728,0.9327077134355688,0.044,-0.133,9.96319,8.877690315246582,0.037,0.018,0.5,0.0,0.0,-0.0,1.0,0.0,0.0,0.0,0.0,0.0,0.0,0.0,0.0,0.0,8.877690315246582,3.9210000038146973,False,True,False,True,True,False,False
114,1.1400000000000001,0.044,0.014,0.579,0.0013837706064805388,-0.0013837706064805388,0.0027675412129610777,0.9999942779541016,0.0055312705,-0.002775188,0.0027598804,-0.007,0.017,0.013,-0.024,0.05,0.001,8.877690315246582,0.045122914016246796,0.015125111676752567,0.5803865790367126,,,,,,,,0.5415274280918593,0.5111619745174334,0.5389333943694209,0.5429312581063553,97400.0,96200.0,98700.0,96500.0,8.90310525894165,0.9327077134355688,-0.01654077973601892,0.008407721065079728,0.9327077134355688,0.044,-0.133,9.96319,8.877690315246582,0.037,0.018,0.5,0.0,0.0,-0.0,1.0,0.0,0.0,0.0,0.0,0.0,0.0,0.0,0.0,0.0,8.877690315246582,3.9210000038146973,False,True,False,True,True,False,False
115,1.1500000000000001,0.044,0.014,0.579,0.0013837706064805388,-0.0013837706064805388,0.0027675412129610777,0.9999942779541016,0.0055312705,-0.002775188,0.0027598804,-0.007,0.017,0.013,-0.024,0.05,0.001,8.877690315246582,0.045122914016246796,0.015125111676752567,0.5803865790367126,,,,,,,,0.5415274280918593,0.5111619745174334,0.5389333943694209,0.5429312581063553,97400.0,96200.0,98700.0,96500.0,8.90310525894165,0.9327077134355688,-0.01654077973601892,0.008407721065079728,0.9327077134355688,0.044,-0.133,9.96319,8.877690315246582,0.037,0.018,0.5,0.0,0.0,-0.0,1.0,0.0,0.0,0.0,0.0,0.0,0.0,0.0,0.0,0.0,8.877690315246582,3.9210000038146973,False,True,False,True,True,False,False
116,1.16,0.044,0.014,0.579,0.0013837706064805388,-0.0013837706064805388,0.0027675412129610777,0.9999942779541016,0.0055312705,-0.002775188,0.0027598804,-0.007,0.017,0.013,-0.024,0.05,0.001,8.877690315246582,0.045122914016246796,0.015125111676752567,0.5803865790367126,,,,,,,,0.5415274280918593,0.5111619745174334,0.5389333943694209,0.5429312581063553,97400.0,96200.0,98700.0,96500.0,8.90310525894165,0.9327077134355688,-0.01654077973601892,0.008407721065079728,0.9327077134355688,0.044,-0.133,9.96319,8.877690315246582,0.037,0.018,0.5,0.0,0.0,-0.0,1.0,0.0,0.0,0.0,0.0,0.0,0.0,0.0,0.0,0.0,8.877690315246582,3.9210000038146973,False,True,False,True,True,False,False
117,1.17,0.044,0.014,0.579,0.0013837706064805388,-0.0013837706064805388,0.0027675412129610777,0.9999942779541016,0.0055312705,-0.002775188,0.0027598804,-0.007,0.017,0.013,-0.024,0.05,0.001,8.877690315246582,0.045122914016246796,0.015125111676752567,0.5803865790367126,,,,,,,,0.5415274280918593,0.5111619745174334,0.5389333943694209,0.5429312581063553,97400.0,96200.0,98700.0,96500.0,8.90310525894165,0.9327077134355688,-0.01654077973601892,0.008407721065079728,0.9327077134355688,0.044,-0.133,9.96319,8.877690315246582,0.037,0.018,0.5,0.0,0.0,-0.0,1.0,0.0,0.0,0.0,0.0,0.0,0.0,0.0,0.0,0.0,8.877690315246582,3.9210000038146973,False,True,False,True,True,False,False
118,1.18,0.044,0.014,0.579,0.0013837706064805388,-0.0013837706064805388,0.0027675412129610777,0.9999942779541016,0.0055312705,-0.002775188,0.0027598804,-0.007,0.017,0.013,-0.024,0.05,0.001,8.877690315246582,0.045122914016246796,0.015125111676752567,0.5803865790367126,,,,,,,,0.5415274280918593,0.5111619745174334,0.5389333943694209,0.5429312581063553,97400.0,96200.0,98700.0,96500.0,8.90310525894165,0.9327077134355688,-0.01654077973601892,0.008407721065079728,0.9327077134355688,0.044,-0.133,9.96319,8.877690315246582,0.037,0.018,0.5,0.0,0.0,-0.0,1.0,0.0,0.0,0.0,0.0,0.0,0.0,0.0,0.0,0.0,8.877690315246582,3.9210000038146973,False,True,False,True,True,False,False
119,1.19,0.044,0.014,0.579,0.0013837706064805388,-0.0013837706064805388,0.0027675412129610777,0.9999942779541016,0.0055312705,-0.002775188,0.0027598804,-0.007,0.017,0.013,-0.024,0.05,0.001,8.877690315246582,0.045122914016246796,0.015125111676752567,0.5803865790367126,,,,,,,,0.5415274280918593,0.5111619745174334,0.5389333943694209,0.5429312581063553,97400.0,96200.0,98700.0,96500.0,8.90310525894165,0.9327077134355688,-0.01654077973601892,0.008407721065079728,0.9327077134355688,0.044,-0.133,9.96319,8.877690315246582,0.037,0.018,0.5,0.0,0.0,-0.0,1.0,0.0,0.0,0.0,0.0,0.0,0.0,0.0,0.0,0.0,8.877690315246582,3.9210000038146973,False,True,False,True,True,False,False
120,1.2,0.044,0.014,0.579,0.0013837706064805388,-0.0013837706064805388,0.0027675412129610777,0.9999942779541016,0.0055312705,-0.002775188,0.0027598804,-0.007,0.017,0.013,-0.024,0.05,0.001,8.877690315246582,0.045122914016246796,0.015125111676752567,0.5803865790367126,,,,,,,,0.5415274280918593,0.5111619745174334,0.5389333943694209,0.5429312581063553,97400.0,96200.0,98700.0,96500.0,8.90310525894165,0.9327077134355688,-0.01654077973601892,0.008407721065079728,0.9327077134355688,0.044,-0.133,9.96319,8.877690315246582,0.037,0.018,0.5,0.0,0.0,-0.0,1.0,0.0,0.0,0.0,0.0,0.0,0.0,0.0,0.0,0.0,8.877690315246582,3.9210000038146973,False,True,False,True,True,False,False
121,1.21,0.044,0.014,0.579,0.0013837706064805388,-0.0013837706064805388,0.0027675412129610777,0.9999942779541016,0.0055312705,-0.002775188,0.0027598804,-0.007,0.017,0.013,-0.024,0.05,0.001,8.877690315246582,0.045122914016246796,0.015125111676752567,0.5803865790367126,,,,,,,,0.5415274280918593,0.5111619745174334,0.5389333943694209,0.5429312581063553,97400.0,96200.0,98700.0,96500.0,8.90310525894165,0.9327077134355688,-0.01654077973601892,0.008407721065079728,0.9327077134355688,0.044,-0.133,9.96319,8.877690315246582,0.037,0.018,0.5,0.0,0.0,-0.0,1.0,0.0,0.0,0.0,0.0,0.0,0.0,0.0,0.0,0.0,8.877690315246582,3.9210000038146973,False,True,False,True,True,False,False
122,1.22,0.043,0.017,0.582,-0.0013837706064805388,-0.0013837706064805388,0.0013837706064805388,0.9999971389770508,0.002771377,-0.0027637072,-0.002771377,-0.013,0.011,0.024,-0.013,0.029,0.0,8.931485652923584,0.0445004478096962,0.017408251762390137,0.5834433436393738,,,,,,,,0.5463035019455252,0.5197222858014802,0.5701686121919585,0.5409628442816815,99000.0,96800.0,100300.0,97700.0,8.931591033935547,0.2235141527428092,-0.0007476920729381247,0.008178835736629282,0.2235141527428092,0.089,-0.035,9.81319,8.931485652923584,0.037,0.018,0.5,0.0,0.0,-0.0,1.0,0.0,0.0,0.0,0.0,0.0,0.0,0.0,0.0,0.0,8.931485652923584,3.9210000038146973,False,True,False,True,True,False,False
123,1.23,0.043,0.017,0.582,-0.0013837706064805388,-0.0013837706064805388,0.0013837706064805388,0.9999971389770508,0.002771377,-0.0027637072,-0.002771377,-0.013,0.011,0.024,-0.013,0.029,0.0,8.931485652923584,0.0445004478096962,0.017408251762390137,0.5834433436393738,,,,,,,,0.5463035019455252,0.5197222858014802,0.5701686121919585,0.5409628442816815,99000.0,96800.0,100300.0,97700.0,8.931591033935547,0.2235141527428092,-0.0007476920729381247,0.008178835736629282,0.2235141527428092,0.089,-0.035,9.81319,8.931485652923584,0.037,0.018,0.5,0.0,0.0,-0.0,1.0,0.0,0.0,0.0,0.0,0.0,0.0,0.0,0.0,0.0,8.931485652923584,3.9210000038146973,False,True,False,True,True,False,False
124,1.24,0.043,0.017,0.582,-0.0013837706064805388,-0.0013837706064805388,0.0013837706064805388,0.9999971389770508,0.002771377,-0.0027637072,-0.002771377,-0.013,0.011,0.024,-0.013,0.029,0.0,8.931485652923584,0.0445004478096962,0.017408251762390137,0.5834433436393738,,,,,,,,0.5463035019455252,0.5197222858014802,0.5701686121919585,0.5409628442816815,99000.0,96800.0,100300.0,97700.0,8.931591033935547,0.2235141527428092,-0.0007476920729381247,0.008178835736629282,0.2235141527428092,0.089,-0.035,9.81319,8.931485652923584,0.037,0.018,0.5,0.0,0.0,-0.0,1.0,0.0,0.0,0.0,0.0,0.0,0.0,0.0,0.0,0.0,8.931485652923584,3.9210000038146973,False,True,False,True,True,False,False
125,1.25,0.043,0.017,0.582,-0.0013837706064805388,-0.0013837706064805388,0.0013837706064805388,0.9999971389770508,0.002771377,-0.0027637072,-0.002771377,-0.013,0.011,0.024,-0.013,0.029,0.0,8.931485652923584,0.0445004478096962,0.017408251762390137,0.5834433436393738,,,,,,,,0.5463035019455252,0.5197222858014802,0.5701686121919585,0.5409628442816815,99000.0,96800.0,100300.0,97700.0,8.931591033935547,0.2235141527428092,-0.0007476920729381247,0.008178835736629282,0.2235141527428092,0.089,-0.035,9.81319,8.931485652923584,0.037,0.018,0.5,0.0,0.0,-0.0,1.0,0.0,0.0,0.0,0.0,0.0,0.0,0.0,0.0,0.0,8.931485652923584,3.9210000038146973,False,True,False,True,True,False,False
126,1.26,0.043,0.017,0.582,-0.0013837706064805388,-0.0013837706064805388,0.0013837706064805388,0.9999971389770508,0.002771377,-0.0027637072,-0.002771377,-0.013,0.011,0.024,-0.013,0.029,0.0,8.931485652923584,0.0445004478096962,0.017408251762390137,0.5834433436393738,,,,,,,,0.5463035019455252,0.5197222858014802,0.5701686121919585,0.5409628442816815,99000.0,96800.0,100300.0,97700.0,8.931591033935547,0.2235141527428092,-0.0007476920729381247,0.008178835736629282,0.2235141527428092,0.089,-0.035,9.81319,8.931485652923584,0.037,0.018,0.5,0.0,0.0,-0.0,1.0,0.0,0.0,0.0,0.0,0.0,0.0,0.0,0.0,0.0,8.931485652923584,3.9210000038146973,False,True,False,True,True,False,False
127,1.27,0.043,0.017,0.582,-0.0013837706064805388,-0.0013837706064805388,0.0013837706064805388,0.9999971389770508,0.002771377,-0.0027637072,-0.002771377,-0.013,0.011,0.024,-0.013,0.029,0.0,8.931485652923584,0.0445004478096962,0.017408251762390137,0.5834433436393738,,,,,,,,0.5463035019455252,0.5197222858014802,0.5701686121919585,0.5409628442816815,99000.0,96800.0,100300.0,97700.0,8.931591033935547,0.2235141527428092,-0.0007476920729381247,0.008178835736629282,0.2235141527428092,0.089,-0.035,9.81319,8.931485652923584,0.037,0.018,0.5,0.0,0.0,-0.0,1.0,0.0,0.0,0.0,0.0,0.0,0.0,0.0,0.0,0.0,8.931485652923584,3.9210000038146973,False,True,False,True,True,False,False
128,1.28,0.043,0.017,0.582,-0.0013837706064805388,-0.0013837706064805388,0.0013837706064805388,0.9999971389770508,0.002771377,-0.0027637072,-0.002771377,-0.013,0.011,0.024,-0.013,0.029,0.0,8.931485652923584,0.0445004478096962,0.017408251762390137,0.5834433436393738,,,,,,,,0.5463035019455252,0.5197222858014802,0.5701686121919585,0.5409628442816815,99000.0,96800.0,100300.0,97700.0,8.931591033935547,0.2235141527428092,-0.0007476920729381247,0.008178835736629282,0.2235141527428092,0.089,-0.035,9.81319,8.931485652923584,0.037,0.018,0.5,0.0,0.0,-0.0,1.0,0.0,0.0,0.0,0.0,0.0,0.0,0.0,0.0,0.0,8.931485652923584,3.9210000038146973,False,True,False,True,True,False,False
129,1.29,0.043,0.017,0.582,-0.0013837706064805388,-0.0013837706064805388,0.0013837706064805388,0.9999971389770508,0.002771377,-0.0027637072,-0.002771377,-0.013,0.011,0.024,-0.013,0.029,0.0,8.931485652923584,0.0445004478096962,0.017408251762390137,0.5834433436393738,,,,,,,,0.5463035019455252,0.5197222858014802,0.5701686121919585,0.5409628442816815,99000.0,96800.0,100300.0,97700.0,8.931591033935547,0.2235141527428092,-0.0007476920729381247,0.008178835736629282,0.2235141527428092,0.089,-0.035,9.81319,8.931485652923584,0.037,0.018,0.5,0.0,0.0,-0.0,1.0,0.0,0.0,0.0,0.0,0.0,0.0,0.0,0.0,0.0,8.931485652923584,3.9210000038146973,False,True,False,True,True,False,False
130,1.3,0.043,0.017,0.582,-0.0013837706064805388,-0.0013837706064805388,0.0013837706064805388,0.9999971389770508,0.002771377,-0.0027637072,-0.002771377,-0.013,0.011,0.024,-0.013,0.029,0.0,8.931485652923584,0.0445004478096962,0.017408251762390137,0.5834433436393738,,,,,,,,0.5463035019455252,0.5197222858014802,0.5701686121919585,0.5409628442816815,99000.0,96800.0,100300.0,97700.0,8.931591033935547,0.2235141527428092,-0.0007476920729381247,0.008178835736629282,0.2235141527428092,0.089,-0.035,9.81319,8.931485652923584,0.037,0.018,0.5,0.0,0.0,-0.0,1.0,0.0,0.0,0.0,0.0,0.0,0.0,0.0,0.0,0.0,8.931485652923584,3.9210000038146973,False,True,False,True,True,False,False
131,1.31,0.043,0.017,0.582,-0.0013837706064805388,-0.0013837706064805388,0.0013837706064805388,0.9999971389770508,0.002771377,-0.0027637072,-0.002771377,-0.013,0.011,0.024,-0.013,0.029,0.0,8.931485652923584,0.0445004478096962,0.017408251762390137,0.5834433436393738,,,,,,,,0.5463035019455252,0.5197222858014802,0.5701686121919585,0.5409628442816815,99000.0,96800.0,100300.0,97700.0,8.931591033935547,0.2235141527428092,-0.0007476920729381247,0.008178835736629282,0.2235141527428092,0.089,-0.035,9.81319,8.931485652923584,0.037,0.018,0.5,0.0,0.0,-0.0,1.0,0.0,0.0,0.0,0.0,0.0,0.0,0.0,0.0,0.0,8.931485652923584,3.9210000038146973,False,True,False,True,True,False,False
132,1.32,0.043,0.017,0.582,-0.0013837706064805388,-0.0013837706064805388,0.0013837706064805388,0.9999971389770508,0.002771377,-0.0027637072,-0.002771377,-0.013,0.011,0.024,-0.013,0.029,0.0,8.931485652923584,0.0445004478096962,0.017408251762390137,0.5834433436393738,,,,,,,,0.5463035019455252,0.5197222858014802,0.5701686121919585,0.5409628442816815,99000.0,96800.0,100300.0,97700.0,8.931591033935547,0.2235141527428092,-0.0007476920729381247,0.008178835736629282,0.2235141527428092,0.089,-0.035,9.81319,8.931485652923584,0.037,0.018,0.5,0.0,0.0,-0.0,1.0,0.0,0.0,0.0,0.0,0.0,0.0,0.0,0.0,0.0,8.931485652923584,3.9210000038146973,False,True,False,True,True,False,False
133,1.33,0.043,0.017,0.582,-0.0013837706064805388,-0.0013837706064805388,0.0013837706064805388,0.9999971389770508,0.002771377,-0.0027637072,-0.002771377,-0.013,0.011,0.024,-0.013,0.029,0.0,8.931485652923584,0.0445004478096962,0.017408251762390137,0.5834433436393738,,,,,,,,0.5463035019455252,0.5197222858014802,0.5701686121919585,0.5409628442816815,99000.0,96800.0,100300.0,97700.0,8.931591033935547,0.2235141527428092,-0.0007476920729381247,0.008178835736629282,0.2235141527428092,0.089,-0.035,9.81319,8.931485652923584,0.037,0.018,0.5,0.0,0.0,-0.0,1.0,0.0,0.0,0.0,0.0,0.0,0.0,0.0,0.0,0.0,8.931485652923584,3.9210000038146973,False,True,False,True,True,False,False
134,1.34,0.043,0.017,0.582,-0.0013837706064805388,-0.0013837706064805388,0.0013837706064805388,0.9999971389770508,0.002771377,-0.0027637072,-0.002771377,-0.013,0.011,0.024,-0.013,0.029,0.0,8.931485652923584,0.0445004478096962,0.017408251762390137,0.5834433436393738,,,,,,,,0.5463035019455252,0.5197222858014802,0.5701686121919585,0.5409628442816815,99000.0,96800.0,100300.0,97700.0,8.931591033935547,0.2235141527428092,-0.0007476920729381247,0.008178835736629282,0.2235141527428092,0.089,-0.035,9.81319,8.931485652923584,0.037,0.018,0.5,0.0,0.0,-0.0,1.0,0.0,0.0,0.0,0.0,0.0,0.0,0.0,0.0,0.0,8.931485652923584,3.9210000038146973,False,True,False,True,True,False,False
135,1.35,0.043,0.017,0.582,-0.0013837706064805388,-0.0013837706064805388,0.0013837706064805388,0.9999971389770508,0.002771377,-0.0027637072,-0.002771377,-0.013,0.011,0.024,-0.013,0.029,0.0,8.931485652923584,0.0445004478096962,0.017408251762390137,0.5834433436393738,,,,,,,,0.5463035019455252,0.5197222858014802,0.5701686121919585,0.5409628442816815,99000.0,96800.0,100300.0,97700.0,8.931591033935547,0.2235141527428092,-0.0007476920729381247,0.008178835736629282,0.2235141527428092,0.089,-0.035,9.81319,8.931485652923584,0.037,0.018,0.5,0.0,0.0,-0.0,1.0,0.0,0.0,0.0,0.0,0.0,0.0,0.0,0.0,0.0,8.931485652923584,3.9210000038146973,False,True,False,True,True,False,False
136,1.36,0.043,0.017,0.582,-0.0013837706064805388,-0.0013837706064805388,0.0013837706064805388,0.9999971389770508,0.002771377,-0.0027637072,-0.002771377,-0.013,0.011,0.024,-0.013,0.029,0.0,8.931485652923584,0.0445004478096962,0.017408251762390137,0.5834433436393738,,,,,,,,0.5463035019455252,0.5197222858014802,0.5701686121919585,0.5409628442816815,99000.0,96800.0,100300.0,97700.0,8.931591033935547,0.2235141527428092,-0.0007476920729381247,0.008178835736629282,0.2235141527428092,0.089,-0.035,9.81319,8.931485652923584,0.037,0.018,0.5,0.0,0.0,-0.0,1.0,0.0,0.0,0.0,0.0,0.0,0.0,0.0,0.0,0.0,8.931485652923584,3.9210000038146973,False,True,False,True,True,False,False
137,1.37,0.043,0.017,0.582,-0.0013837706064805388,-0.0013837706064805388,0.0013837706064805388,0.9999971389770508,0.002771377,-0.0027637072,-0.002771377,-0.013,0.011,0.024,-0.013,0.029,0.0,8.931485652923584,0.0445004478096962,0.017408251762390137,0.5834433436393738,,,,,,,,0.5463035019455252,0.5197222858014802,0.5701686121919585,0.5409628442816815,99000.0,96800.0,100300.0,97700.0,8.931591033935547,0.2235141527428092,-0.0007476920729381247,0.008178835736629282,0.2235141527428092,0.089,-0.035,9.81319,8.931485652923584,0.037,0.018,0.5,0.0,0.0,-0.0,1.0,0.0,0.0,0.0,0.0,0.0,0.0,0.0,0.0,0.0,8.931485652923584,3.9210000038146973,False,True,False,True,True,False,False
138,1.3800000000000001,0.043,0.017,0.582,-0.0013837706064805388,-0.0013837706064805388,0.0013837706064805388,0.9999971389770508,0.002771377,-0.0027637072,-0.002771377,-0.013,0.011,0.024,-0.013,0.029,0.0,8.931485652923584,0.0445004478096962,0.017408251762390137,0.5834433436393738,,,,,,,,0.5463035019455252,0.5197222858014802,0.5701686121919585,0.5409628442816815,99000.0,96800.0,100300.0,97700.0,8.931591033935547,0.2235141527428092,-0.0007476920729381247,0.008178835736629282,0.2235141527428092,0.089,-0.035,9.81319,8.931485652923584,0.037,0.018,0.5,0.0,0.0,-0.0,1.0,0.0,0.0,0.0,0.0,0.0,0.0,0.0,0.0,0.0,8.931485652923584,3.9210000038146973,False,True,False,True,True,False,False
139,1.3900000000000001,0.043,0.017,0.582,-0.0013837706064805388,-0.0013837706064805388,0.0013837706064805388,0.9999971389770508,0.002771377,-0.0027637072,-0.002771377,-0.013,0.011,0.024,-0.013,0.029,0.0,8.931485652923584,0.0445004478096962,0.017408251762390137,0.5834433436393738,,,,,,,,0.5463035019455252,0.5197222858014802,0.5701686121919585,0.5409628442816815,99000.0,96800.0,100300.0,97700.0,8.931591033935547,0.2235141527428092,-0.0007476920729381247,0.008178835736629282,0.2235141527428092,0.089,-0.035,9.81319,8.931485652923584,0.037,0.018,0.5,0.0,0.0,-0.0,1.0,0.0,0.0,0.0,0.0,0.0,0.0,0.0,0.0,0.0,8.931485652923584,3.9210000038146973,False,True,False,True,True,False,False
140,1.4000000000000001,0.043,0.017,0.582,-0.0013837706064805388,-0.0013837706064805388,0.0013837706064805388,0.9999971389770508,0.002771377,-0.0027637072,-0.002771377,-0.013,0.011,0.024,-0.013,0.029,0.0,8.931485652923584,0.0445004478096962,0.017408251762390137,0.5834433436393738,,,,,,,,0.5463035019455252,0.5197222858014802,0.5701686121919585,0.5409628442816815,99000.0,96800.0,100300.0,97700.0,8.931591033935547,0.2235141527428092,-0.0007476920729381247,0.008178835736629282,0.2235141527428092,0.089,-0.035,9.81319,8.931485652923584,0.037,0.018,0.5,0.0,0.0,-0.0,1.0,0.0,0.0,0.0,0.0,0.0,0.0,0.0,0.0,0.0,8.931485652923584,3.9210000038146973,False,True,False,True,True,False,False
141,1.41,0.043,0.017,0.582,-0.0013837706064805388,-0.0013837706064805388,0.0013837706064805388,0.9999971389770508,0.002771377,-0.0027637072,-0.002771377,-0.013,0.011,0.024,-0.013,0.029,0.0,8.931485652923584,0.0445004478096962,0.017408251762390137,0.5834433436393738,,,,,,,,0.5463035019455252,0.5197222858014802,0.5701686121919585,0.5409628442816815,99000.0,96800.0,100300.0,97700.0,8.931591033935547,0.2235141527428092,-0.0007476920729381247,0.008178835736629282,0.2235141527428092,0.089,-0.035,9.81319,8.931485652923584,0.037,0.018,0.5,0.0,0.0,-0.0,1.0,0.0,0.0,0.0,0.0,0.0,0.0,0.0,0.0,0.0,8.931485652923584,3.9210000038146973,False,True,False,True,True,False,False
142,1.42,0.043,0.017,0.582,-0.0013837706064805388,-0.0013837706064805388,0.0013837706064805388,0.9999971389770508,0.002771377,-0.0027637072,-0.002771377,-0.013,0.011,0.024,-0.013,0.029,0.0,8.931485652923584,0.0445004478096962,0.017408251762390137,0.5834433436393738,,,,,,,,0.5463035019455252,0.5197222858014802,0.5701686121919585,0.5409628442816815,99000.0,96800.0,100300.0,97700.0,8.931591033935547,0.2235141527428092,-0.0007476920729381247,0.008178835736629282,0.2235141527428092,0.089,-0.035,9.81319,8.931485652923584,0.037,0.018,0.5,0.0,0.0,-0.0,1.0,0.0,0.0,0.0,0.0,0.0,0.0,0.0,0.0,0.0,8.931485652923584,3.9210000038146973,False,True,False,True,True,False,False
143,1.43,0.043,0.017,0.582,-0.0013837706064805388,-0.0013837706064805388,0.0013837706064805388,0.9999971389770508,0.002771377,-0.0027637072,-0.002771377,-0.013,0.011,0.024,-0.013,0.029,0.0,8.931485652923584,0.0445004478096962,0.017408251762390137,0.5834433436393738,,,,,,,,0.5463035019455252,0.5197222858014802,0.5701686121919585,0.5409628442816815,99000.0,96800.0,100300.0,97700.0,8.931591033935547,0.2235141527428092,-0.0007476920729381247,0.008178835736629282,0.2235141527428092,0.089,-0.035,9.81319,8.931485652923584,0.037,0.018,0.5,0.0,0.0,-0.0,1.0,0.0,0.0,0.0,0.0,0.0,0.0,0.0,0.0,0.0,8.931485652923584,3.9210000038146973,False,True,False,True,True,False,False
144,1.44,0.043,0.017,0.582,-0.0013837706064805388,-0.0013837706064805388,0.0013837706064805388,0.9999971389770508,0.002771377,-0.0027637072,-0.002771377,-0.013,0.011,0.024,-0.013,0.029,0.0,8.931485652923584,0.0445004478096962,0.017408251762390137,0.5834433436393738,,,,,,,,0.5463035019455252,0.5197222858014802,0.5701686121919585,0.5409628442816815,99000.0,96800.0,100300.0,97700.0,8.931591033935547,0.2235141527428092,-0.0007476920729381247,0.008178835736629282,0.2235141527428092,0.089,-0.035,9.81319,8.931485652923584,0.037,0.018,0.5,0.0,0.0,-0.0,1.0,0.0,0.0,0.0,0.0,0.0,0.0,0.0,0.0,0.0,8.931485652923584,3.9210000038146973,False,True,False,True,True,False,False
145,1.45,0.043,0.017,0.582,-0.0013837706064805388,-0.0013837706064805388,0.0013837706064805388,0.9999971389770508,0.002771377,-0.0027637072,-0.002771377,-0.013,0.011,0.024,-0.013,0.029,0.0,8.931485652923584,0.0445004478096962,0.017408251762390137,0.5834433436393738,,,,,,,,0.5463035019455252,0.5197222858014802,0.5701686121919585,0.5409628442816815,99000.0,96800.0,100300.0,97700.0,8.931591033935547,0.2235141527428092,-0.0007476920729381247,0.008178835736629282,0.2235141527428092,0.089,-0.035,9.81319,8.931485652923584,0.037,0.018,0.5,0.0,0.0,-0.0,1.0,0.0,0.0,0.0,0.0,0.0,0.0,0.0,0.0,0.0,8.931485652923584,3.9210000038146973,False,True,False,True,True,False,False
146,1.46,0.043,0.017,0.582,-0.0013837706064805388,-0.0013837706064805388,0.0013837706064805388,0.9999971389770508,0.002771377,-0.0027637072,-0.002771377,-0.013,0.011,0.024,-0.013,0.029,0.0,8.931485652923584,0.0445004478096962,0.017408251762390137,0.5834433436393738,,,,,,,,0.5463035019455252,0.5197222858014802,0.5701686121919585,0.5409628442816815,99000.0,96800.0,100300.0,97700.0,8.931591033935547,0.2235141527428092,-0.0007476920729381247,0.008178835736629282,0.2235141527428092,0.089,-0.035,9.81319,8.931485652923584,0.037,0.018,0.5,0.0,0.0,-0.0,1.0,0.0,0.0,0.0,0.0,0.0,0.0,0.0,0.0,0.0,8.931485652923584,3.9210000038146973,False,True,False,True,True,False,False
147,1.47,0.043,0.017,0.582,-0.0013837706064805388,-0.0013837706064805388,0.0013837706064805388,0.9999971389770508,0.002771377,-0.0027637072,-0.002771377,-0.013,0.011,0.024,-0.013,0.029,0.0,8.931485652923584,0.0445004478096962,0.017408251762390137,0.5834433436393738,,,,,,,,0.5463035019455252,0.5197222858014802,0.5701686121919585,0.5409628442816815,99000.0,96800.0,100300.0,97700.0,8.931591033935547,0.2235141527428092,-0.0007476920729381247,0.008178835736629282,0.2235141527428092,0.089,-0.035,9.81319,8.931485652923584,0.037,0.018,0.5,0.0,0.0,-0.0,1.0,0.0,0.0,0.0,0.0,0.0,0.0,0.0,0.0,0.0,8.931485652923584,3.9210000038146973,False,True,False,True,True,False,False
148,1.48,0.043,0.017,0.582,-0.0013837706064805388,-0.0013837706064805388,0.0013837706064805388,0.9999971389770508,0.002771377,-0.0027637072,-0.002771377,-0.013,0.011,0.024,-0.013,0.029,0.0,8.931485652923584,0.0445004478096962,0.017408251762390137,0.5834433436393738,,,,,,,,0.5463035019455252,0.5197222858014802,0.5701686121919585,0.5409628442816815,99000.0,96800.0,100300.0,97700.0,8.931591033935547,0.2235141527428092,-0.0007476920729381247,0.008178835736629282,0.2235141527428092,0.089,-0.035,9.81319,8.931485652923584,0.037,0.018,0.5,0.0,0.0,-0.0,1.0,0.0,0.0,0.0,0.0,0.0,0.0,0.0,0.0,0.0,8.931485652923584,3.9210000038146973,False,True,False,True,True,False,False
149,1.49,0.043,0.017,0.582,-0.0013837706064805388,-0.0013837706064805388,0.0013837706064805388,0.9999971389770508,0.002771377,-0.0027637072,-0.002771377,-0.013,0.011,0.024,-0.013,0.029,0.0,8.931485652923584,0.0445004478096962,0.017408251762390137,0.5834433436393738,,,,,,,,0.5463035019455252,0.5197222858014802,0.5701686121919585,0.5409628442816815,99000.0,96800.0,100300.0,97700.0,8.931591033935547,0.2235141527428092,-0.0007476920729381247,0.008178835736629282,0.2235141527428092,0.089,-0.035,9.81319,8.931485652923584,0.037,0.018,0.5,0.0,0.0,-0.0,1.0,0.0,0.0,0.0,0.0,0.0,0.0,0.0,0.0,0.0,8.931485652923584,3.9210000038146973,False,True,False,True,True,False,False
150,1.5,0.043,0.017,0.582,-0.0013837706064805388,-0.0013837706064805388,0.0013837706064805388,0.9999971389770508,0.002771377,-0.0027637072,-0.002771377,-0.013,0.011,0.024,-0.013,0.029,0.0,8.931485652923584,0.0445004478096962,0.017408251762390137,0.5834433436393738,,,,,,,,0.5463035019455252,0.5197222858014802,0.5701686121919585,0.5409628442816815,99000.0,96800.0,100300.0,97700.0,8.931591033935547,0.2235141527428092,-0.0007476920729381247,0.008178835736629282,0.2235141527428092,0.089,-0.035,9.81319,8.931485652923584,0.037,0.018,0.5,0.0,0.0,-0.0,1.0,0.0,0.0,0.0,0.0,0.0,0.0,0.0,0.0,0.0,8.931485652923584,3.9210000038146973,False,True,False,True,True,False,False
151,1.51,0.043,0.017,0.582,-0.0013837706064805388,-0.0013837706064805388,0.0013837706064805388,0.9999971389770508,0.002771377,-0.0027637072,-0.002771377,-0.013,0.011,0.024,-0.013,0.029,0.0,8.931485652923584,0.0445004478096962,0.017408251762390137,0.5834433436393738,,,,,,,,0.5463035019455252,0.5197222858014802,0.5701686121919585,0.5409628442816815,99000.0,96800.0,100300.0,97700.0,8.931591033935547,0.2235141527428092,-0.0007476920729381247,0.008178835736629282,0.2235141527428092,0.089,-0.035,9.81319,8.931485652923584,0.037,0.018,0.5,0.0,0.0,-0.0,1.0,0.0,0.0,0.0,0.0,0.0,0.0,0.0,0.0,0.0,8.931485652923584,3.9210000038146973,False,True,False,True,True,False,False
152,1.52,0.043,0.017,0.582,-0.0013837706064805388,-0.0013837706064805388,0.0013837706064805388,0.9999971389770508,0.002771377,-0.0027637072,-0.002771377,-0.013,0.011,0.024,-0.013,0.029,0.0,8.931485652923584,0.0445004478096962,0.017408251762390137,0.5834433436393738,,,,,,,,0.5463035019455252,0.5197222858014802,0.5701686121919585,0.5409628442816815,99000.0,96800.0,100300.0,97700.0,8.931591033935547,0.2235141527428092,-0.0007476920729381247,0.008178835736629282,0.2235141527428092,0.089,-0.035,9.81319,8.931485652923584,0.037,0.018,0.5,0.0,0.0,-0.0,1.0,0.0,0.0,0.0,0.0,0.0,0.0,0.0,0.0,0.0,8.931485652923584,3.9210000038146973,False,True,False,True,True,False,False
153,1.53,0.043,0.017,0.582,-0.0013837706064805388,-0.0013837706064805388,0.0013837706064805388,0.9999971389770508,0.002771377,-0.0027637072,-0.002771377,-0.013,0.011,0.024,-0.013,0.029,0.0,8.931485652923584,0.0445004478096962,0.017408251762390137,0.5834433436393738,,,,,,,,0.5463035019455252,0.5197222858014802,0.5701686121919585,0.5409628442816815,99000.0,96800.0,100300.0,97700.0,8.931591033935547,0.2235141527428092,-0.0007476920729381247,0.008178835736629282,0.2235141527428092,0.089,-0.035,9.81319,8.931485652923584,0.037,0.018,0.5,0.0,0.0,-0.0,1.0,0.0,0.0,0.0,0.0,0.0,0.0,0.0,0.0,0.0,8.931485652923584,3.9210000038146973,False,True,False,True,True,False,False
154,1.54,0.043,0.017,0.582,-0.0013837706064805388,-0.0013837706064805388,0.0013837706064805388,0.9999971389770508,0.002771377,-0.0027637072,-0.002771377,-0.013,0.011,0.024,-0.013,0.029,0.0,8.931485652923584,0.0445004478096962,0.017408251762390137,0.5834433436393738,,,,,,,,0.5463035019455252,0.5197222858014802,0.5701686121919585,0.5409628442816815,99000.0,96800.0,100300.0,97700.0,8.931591033935547,0.2235141527428092,-0.0007476920729381247,0.008178835736629282,0.2235141527428092,0.089,-0.035,9.81319,8.931485652923584,0.037,0.018,0.5,0.0,0.0,-0.0,1.0,0.0,0.0,0.0,0.0,0.0,0.0,0.0,0.0,0.0,8.931485652923584,3.9210000038146973,False,True,False,True,True,False,False
155,1.55,0.043,0.017,0.582,-0.0013837706064805388,-0.0013837706064805388,0.0013837706064805388,0.9999971389770508,0.002771377,-0.0027637072,-0.002771377,-0.013,0.011,0.024,-0.013,0.029,0.0,8.931485652923584,0.0445004478096962,0.017408251762390137,0.5834433436393738,,,,,,,,0.5463035019455252,0.5197222858014802,0.5701686121919585,0.5409628442816815,99000.0,96800.0,100300.0,97700.0,8.931591033935547,0.2235141527428092,-0.0007476920729381247,0.008178835736629282,0.2235141527428092,0.089,-0.035,9.81319,8.931485652923584,0.037,0.018,0.5,0.0,0.0,-0.0,1.0,0.0,0.0,0.0,0.0,0.0,0.0,0.0,0.0,0.0,8.931485652923584,3.9210000038146973,False,True,False,True,True,False,False
156,1.56,0.043,0.017,0.582,-0.0013837706064805388,-0.0013837706064805388,0.0013837706064805388,0.9999971389770508,0.002771377,-0.0027637072,-0.002771377,-0.013,0.011,0.024,-0.013,0.029,0.0,8.931485652923584,0.0445004478096962,0.017408251762390137,0.5834433436393738,,,,,,,,0.5463035019455252,0.5197222858014802,0.5701686121919585,0.5409628442816815,99000.0,96800.0,100300.0,97700.0,8.931591033935547,0.2235141527428092,-0.0007476920729381247,0.008178835736629282,0.2235141527428092,0.089,-0.035,9.81319,8.931485652923584,0.037,0.018,0.5,0.0,0.0,-0.0,1.0,0.0,0.0,0.0,0.0,0.0,0.0,0.0,0.0,0.0,8.931485652923584,3.9210000038146973,False,True,False,True,True,False,False
157,1.57,0.043,0.017,0.582,-0.0013837706064805388,-0.0013837706064805388,0.0013837706064805388,0.9999971389770508,0.002771377,-0.0027637072,-0.002771377,-0.013,0.011,0.024,-0.013,0.029,0.0,8.931485652923584,0.0445004478096962,0.017408251762390137,0.5834433436393738,,,,,,,,0.5463035019455252,0.5197222858014802,0.5701686121919585,0.5409628442816815,99000.0,96800.0,100300.0,97700.0,8.931591033935547,0.2235141527428092,-0.0007476920729381247,0.008178835736629282,0.2235141527428092,0.089,-0.035,9.81319,8.931485652923584,0.037,0.018,0.5,0.0,0.0,-0.0,1.0,0.0,0.0,0.0,0.0,0.0,0.0,0.0,0.0,0.0,8.931485652923584,3.9210000038146973,False,True,False,True,True,False,False
158,1.58,0.043,0.017,0.582,-0.0013837706064805388,-0.0013837706064805388,0.0013837706064805388,0.9999971389770508,0.002771377,-0.0027637072,-0.002771377,-0.013,0.011,0.024,-0.013,0.029,0.0,8.931485652923584,0.0445004478096962,0.017408251762390137,0.5834433436393738,,,,,,,,0.5463035019455252,0.5197222858014802,0.5701686121919585,0.5409628442816815,99000.0,96800.0,100300.0,97700.0,8.931591033935547,0.2235141527428092,-0.0007476920729381247,0.008178835736629282,0.2235141527428092,0.089,-0.035,9.81319,8.931485652923584,0.037,0.018,0.5,0.0,0.0,-0.0,1.0,0.0,0.0,0.0,0.0,0.0,0.0,0.0,0.0,0.0,8.931485652923584,3.9210000038146973,False,True,False,True,True,False,False
159,1.59,0.043,0.017,0.582,-0.0013837706064805388,-0.0013837706064805388,0.0013837706064805388,0.9999971389770508,0.002771377,-0.0027637072,-0.002771377,-0.013,0.011,0.024,-0.013,0.029,0.0,8.931485652923584,0.0445004478096962,0.017408251762390137,0.5834433436393738,,,,,,,,0.5463035019455252,0.5197222858014802,0.5701686121919585,0.5409628442816815,99000.0,96800.0,100300.0,97700.0,8.931591033935547,0.2235141527428092,-0.0007476920729381247,0.008178835736629282,0.2235141527428092,0.089,-0.035,9.81319,8.931485652923584,0.037,0.018,0.5,0.0,0.0,-0.0,1.0,0.0,0.0,0.0,0.0,0.0,0.0,0.0,0.0,0.0,8.931485652923584,3.9210000038146973,False,True,False,True,True,False,False
160,1.6,0.043,0.017,0.582,-0.0013837706064805388,-0.0013837706064805388,0.0013837706064805388,0.9999971389770508,0.002771377,-0.0027637072,-0.002771377,-0.013,0.011,0.024,-0.013,0.029,0.0,8.931485652923584,0.0445004478096962,0.017408251762390137,0.5834433436393738,,,,,,,,0.5463035019455252,0.5197222858014802,0.5701686121919585,0.5409628442816815,99000.0,96800.0,100300.0,97700.0,8.931591033935547,0.2235141527428092,-0.0007476920729381247,0.008178835736629282,0.2235141527428092,0.089,-0.035,9.81319,8.931485652923584,0.037,0.018,0.5,0.0,0.0,-0.0,1.0,0.0,0.0,0.0,0.0,0.0,0.0,0.0,0.0,0.0,8.931485652923584,3.9210000038146973,False,True,False,True,True,False,False
161,1.61,0.043,0.017,0.582,-0.0013837706064805388,-0.0013837706064805388,0.0013837706064805388,0.9999971389770508,0.002771377,-0.0027637072,-0.002771377,-0.013,0.011,0.024,-0.013,0.029,0.0,8.931485652923584,0.0445004478096962,0.017408251762390137,0.5834433436393738,,,,,,,,0.5463035019455252,0.5197222858014802,0.5701686121919585,0.5409628442816815,99000.0,96800.0,100300.0,97700.0,8.931591033935547,0.2235141527428092,-0.0007476920729381247,0.008178835736629282,0.2235141527428092,0.089,-0.035,9.81319,8.931485652923584,0.037,0.018,0.5,0.0,0.0,-0.0,1.0,0.0,0.0,0.0,0.0,0.0,0.0,0.0,0.0,0.0,8.931485652923584,3.9210000038146973,False,True,False,True,True,False,False
162,1.62,0.043,0.017,0.582,-0.0013837706064805388,-0.0013837706064805388,0.0013837706064805388,0.9999971389770508,0.002771377,-0.0027637072,-0.002771377,-0.013,0.011,0.024,-0.013,0.029,0.0,8.931485652923584,0.0445004478096962,0.017408251762390137,0.5834433436393738,,,,,,,,0.5463035019455252,0.5197222858014802,0.5701686121919585,0.5409628442816815,99000.0,96800.0,100300.0,97700.0,8.931591033935547,0.2235141527428092,-0.0007476920729381247,0.008178835736629282,0.2235141527428092,0.089,-0.035,9.81319,8.931485652923584,0.037,0.018,0.5,0.0,0.0,-0.0,1.0,0.0,0.0,0.0,0.0,0.0,0.0,0.0,0.0,0.0,8.931485652923584,3.9210000038146973,False,True,False,True,True,False,False
163,1.6300000000000001,0.043,0.017,0.582,-0.0013837706064805388,-0.0013837706064805388,0.0013837706064805388,0.9999971389770508,0.002771377,-0.0027637072,-0.002771377,-0.013,0.011,0.024,-0.013,0.029,0.0,8.931485652923584,0.0445004478096962,0.017408251762390137,0.5834433436393738,,,,,,,,0.5463035019455252,0.5197222858014802,0.5701686121919585,0.5409628442816815,99000.0,96800.0,100300.0,97700.0,8.931591033935547,0.2235141527428092,-0.0007476920729381247,0.008178835736629282,0.2235141527428092,0.089,-0.035,9.81319,8.931485652923584,0.037,0.018,0.5,0.0,0.0,-0.0,1.0,0.0,0.0,0.0,0.0,0.0,0.0,0.0,0.0,0.0,8.931485652923584,3.9210000038146973,False,True,False,True,True,False,False
164,1.6400000000000001,0.043,0.017,0.582,-0.0013837706064805388,-0.0013837706064805388,0.0013837706064805388,0.9999971389770508,0.002771377,-0.0027637072,-0.002771377,-0.013,0.011,0.024,-0.013,0.029,0.0,8.931485652923584,0.0445004478096962,0.017408251762390137,0.5834433436393738,,,,,,,,0.5463035019455252,0.5197222858014802,0.5701686121919585,0.5409628442816815,99000.0,96800.0,100300.0,97700.0,8.931591033935547,0.2235141527428092,-0.0007476920729381247,0.008178835736629282,0.2235141527428092,0.089,-0.035,9.81319,8.931485652923584,0.037,0.018,0.5,0.0,0.0,-0.0,1.0,0.0,0.0,0.0,0.0,0.0,0.0,0.0,0.0,0.0,8.931485652923584,3.9210000038146973,False,True,False,True,True,False,False
165,1.6500000000000001,0.043,0.017,0.582,-0.0013837706064805388,-0.0013837706064805388,0.0013837706064805388,0.9999971389770508,0.002771377,-0.0027637072,-0.002771377,-0.013,0.011,0.024,-0.013,0.029,0.0,8.931485652923584,0.0445004478096962,0.017408251762390137,0.5834433436393738,,,,,,,,0.5463035019455252,0.5197222858014802,0.5701686121919585,0.5409628442816815,99000.0,96800.0,100300.0,97700.0,8.931591033935547,0.2235141527428092,-0.0007476920729381247,0.008178835736629282,0.2235141527428092,0.089,-0.035,9.81319,8.931485652923584,0.037,0.018,0.5,0.0,0.0,-0.0,1.0,0.0,0.0,0.0,0.0,0.0,0.0,0.0,0.0,0.0,8.931485652923584,3.9210000038146973,False,True,False,True,True,False,False
166,1.6600000000000001,0.043,0.017,0.582,-0.0013837706064805388,-0.0013837706064805388,0.0013837706064805388,0.9999971389770508,0.002771377,-0.0027637072,-0.002771377,-0.013,0.011,0.024,-0.013,0.029,0.0,8.931485652923584,0.0445004478096962,0.017408251762390137,0.5834433436393738,,,,,,,,0.5463035019455252,0.5197222858014802,0.5701686121919585,0.5409628442816815,99000.0,96800.0,100300.0,97700.0,8.931591033935547,0.2235141527428092,-0.0007476920729381247,0.008178835736629282,0.2235141527428092,0.089,-0.035,9.81319,8.931485652923584,0.037,0.018,0.5,0.0,0.0,-0.0,1.0,0.0,0.0,0.0,0.0,0.0,0.0,0.0,0.0,0.0,8.931485652923584,3.9210000038146973,False,True,False,True,True,False,False
167,1.67,0.043,0.017,0.582,-0.0013837706064805388,-0.0013837706064805388,0.0013837706064805388,0.9999971389770508,0.002771377,-0.0027637072,-0.002771377,-0.013,0.011,0.024,-0.013,0.029,0.0,8.931485652923584,0.0445004478096962,0.017408251762390137,0.5834433436393738,,,,,,,,0.5463035019455252,0.5197222858014802,0.5701686121919585,0.5409628442816815,99000.0,96800.0,100300.0,97700.0,8.931591033935547,0.2235141527428092,-0.0007476920729381247,0.008178835736629282,0.2235141527428092,0.089,-0.035,9.81319,8.931485652923584,0.037,0.018,0.5,0.0,0.0,-0.0,1.0,0.0,0.0,0.0,0.0,0.0,0.0,0.0,0.0,0.0,8.931485652923584,3.9210000038146973,False,True,False,True,True,False,False
168,1.68,0.043,0.017,0.582,-0.0013837706064805388,-0.0013837706064805388,0.0013837706064805388,0.9999971389770508,0.002771377,-0.0027637072,-0.002771377,-0.013,0.011,0.024,-0.013,0.029,0.0,8.931485652923584,0.0445004478096962,0.017408251762390137,0.5834433436393738,,,,,,,,0.5463035019455252,0.5197222858014802,0.5701686121919585,0.5409628442816815,99000.0,96800.0,100300.0,97700.0,8.931591033935547,0.2235141527428092,-0.0007476920729381247,0.008178835736629282,0.2235141527428092,0.089,-0.035,9.81319,8.931485652923584,0.037,0.018,0.5,0.0,0.0,-0.0,1.0,0.0,0.0,0.0,0.0,0.0,0.0,0.0,0.0,0.0,8.931485652923584,3.9210000038146973,False,True,False,True,True,False,False
169,1.69,0.043,0.017,0.582,-0.0013837706064805388,-0.0013837706064805388,0.0013837706064805388,0.9999971389770508,0.002771377,-0.0027637072,-0.002771377,-0.013,0.011,0.024,-0.013,0.029,0.0,8.931485652923584,0.0445004478096962,0.017408251762390137,0.5834433436393738,,,,,,,,0.5463035019455252,0.5197222858014802,0.5701686121919585,0.5409628442816815,99000.0,96800.0,100300.0,97700.0,8.931591033935547,0.2235141527428092,-0.0007476920729381247,0.008178835736629282,0.2235141527428092,0.089,-0.035,9.81319,8.931485652923584,0.037,0.018,0.5,0.0,0.0,-0.0,1.0,0.0,0.0,0.0,0.0,0.0,0.0,0.0,0.0,0.0,8.931485652923584,3.9210000038146973,False,True,False,True,True,False,False
170,1.7,0.043,0.017,0.582,-0.0013837706064805388,-0.0013837706064805388,0.0013837706064805388,0.9999971389770508,0.002771377,-0.0027637072,-0.002771377,-0.013,0.011,0.024,-0.013,0.029,0.0,8.931485652923584,0.0445004478096962,0.017408251762390137,0.5834433436393738,,,,,,,,0.5463035019455252,0.5197222858014802,0.5701686121919585,0.5409628442816815,99000.0,96800.0,100300.0,97700.0,8.931591033935547,0.2235141527428092,-0.0007476920729381247,0.008178835736629282,0.2235141527428092,0.089,-0.035,9.81319,8.931485652923584,0.037,0.018,0.5,0.0,0.0,-0.0,1.0,0.0,0.0,0.0,0.0,0.0,0.0,0.0,0.0,0.0,8.931485652923584,3.9210000038146973,False,True,False,True,True,False,False
171,1.71,0.043,0.017,0.582,-0.0013837706064805388,-0.0013837706064805388,0.0013837706064805388,0.9999971389770508,0.002771377,-0.0027637072,-0.002771377,-0.013,0.011,0.024,-0.013,0.029,0.0,8.931485652923584,0.0445004478096962,0.017408251762390137,0.5834433436393738,,,,,,,,0.5463035019455252,0.5197222858014802,0.5701686121919585,0.5409628442816815,99000.0,96800.0,100300.0,97700.0,8.931591033935547,0.2235141527428092,-0.0007476920729381247,0.008178835736629282,0.2235141527428092,0.089,-0.035,9.81319,8.931485652923584,0.037,0.018,0.5,0.0,0.0,-0.0,1.0,0.0,0.0,0.0,0.0,0.0,0.0,0.0,0.0,0.0,8.931485652923584,3.9210000038146973,False,True,False,True,True,False,False
172,1.72,0.043,0.017,0.582,-0.0013837706064805388,-0.0013837706064805388,0.0013837706064805388,0.9999971389770508,0.002771377,-0.0027637072,-0.002771377,-0.013,0.011,0.024,-0.013,0.029,0.0,8.931485652923584,0.0445004478096962,0.017408251762390137,0.5834433436393738,,,,,,,,0.5463035019455252,0.5197222858014802,0.5701686121919585,0.5409628442816815,99000.0,96800.0,100300.0,97700.0,8.931591033935547,0.2235141527428092,-0.0007476920729381247,0.008178835736629282,0.2235141527428092,0.089,-0.035,9.81319,8.931485652923584,0.037,0.018,0.5,0.0,0.0,-0.0,1.0,0.0,0.0,0.0,0.0,0.0,0.0,0.0,0.0,0.0,8.931485652923584,3.9210000038146973,False,True,False,True,True,False,False
173,1.73,0.043,0.017,0.582,-0.0013837706064805388,-0.0013837706064805388,0.0013837706064805388,0.9999971389770508,0.002771377,-0.0027637072,-0.002771377,-0.013,0.011,0.024,-0.013,0.029,0.0,8.931485652923584,0.0445004478096962,0.017408251762390137,0.5834433436393738,,,,,,,,0.5463035019455252,0.5197222858014802,0.5701686121919585,0.5409628442816815,99000.0,96800.0,100300.0,97700.0,8.931591033935547,0.2235141527428092,-0.0007476920729381247,0.008178835736629282,0.2235141527428092,0.089,-0.035,9.81319,8.931485652923584,0.037,0.018,0.5,0.0,0.0,-0.0,1.0,0.0,0.0,0.0,0.0,0.0,0.0,0.0,0.0,0.0,8.931485652923584,3.9210000038146973,False,True,False,True,True,False,False
174,1.74,0.043,0.017,0.582,-0.0013837706064805388,-0.0013837706064805388,0.0013837706064805388,0.9999971389770508,0.002771377,-0.0027637072,-0.002771377,-0.013,0.011,0.024,-0.013,0.029,0.0,8.931485652923584,0.0445004478096962,0.017408251762390137,0.5834433436393738,,,,,,,,0.5463035019455252,0.5197222858014802,0.5701686121919585,0.5409628442816815,99000.0,96800.0,100300.0,97700.0,8.931591033935547,0.2235141527428092,-0.0007476920729381247,0.008178835736629282,0.2235141527428092,0.089,-0.035,9.81319,8.931485652923584,0.037,0.018,0.5,0.0,0.0,-0.0,1.0,0.0,0.0,0.0,0.0,0.0,0.0,0.0,0.0,0.0,8.931485652923584,3.9210000038146973,False,True,False,True,True,False,False
175,1.75,0.043,0.017,0.582,-0.0013837706064805388,-0.0013837706064805388,0.0013837706064805388,0.9999971389770508,0.002771377,-0.0027637072,-0.002771377,-0.013,0.011,0.024,-0.013,0.029,0.0,8.931485652923584,0.0445004478096962,0.017408251762390137,0.5834433436393738,,,,,,,,0.5463035019455252,0.5197222858014802,0.5701686121919585,0.5409628442816815,99000.0,96800.0,100300.0,97700.0,8.931591033935547,0.2235141527428092,-0.0007476920729381247,0.008178835736629282,0.2235141527428092,0.089,-0.035,9.81319,8.931485652923584,0.037,0.018,0.5,0.0,0.0,-0.0,1.0,0.0,0.0,0.0,0.0,0.0,0.0,0.0,0.0,0.0,8.931485652923584,3.9210000038146973,False,True,False,True,True,False,False
176,1.76,0.043,0.017,0.582,-0.0013837706064805388,-0.0013837706064805388,0.0013837706064805388,0.9999971389770508,0.002771377,-0.0027637072,-0.002771377,-0.013,0.011,0.024,-0.013,0.029,0.0,8.931485652923584,0.0445004478096962,0.017408251762390137,0.5834433436393738,,,,,,,,0.5463035019455252,0.5197222858014802,0.5701686121919585,0.5409628442816815,99000.0,96800.0,100300.0,97700.0,8.931591033935547,0.2235141527428092,-0.0007476920729381247,0.008178835736629282,0.2235141527428092,0.089,-0.035,9.81319,8.931485652923584,0.037,0.018,0.5,0.0,0.0,-0.0,1.0,0.0,0.0,0.0,0.0,0.0,0.0,0.0,0.0,0.0,8.931485652923584,3.9210000038146973,False,True,False,True,True,False,False
177,1.77,0.043,0.017,0.582,-0.0013837706064805388,-0.0013837706064805388,0.0013837706064805388,0.9999971389770508,0.002771377,-0.0027637072,-0.002771377,-0.013,0.011,0.024,-0.013,0.029,0.0,8.931485652923584,0.0445004478096962,0.017408251762390137,0.5834433436393738,,,,,,,,0.5463035019455252,0.5197222858014802,0.5701686121919585,0.5409628442816815,99000.0,96800.0,100300.0,97700.0,8.931591033935547,0.2235141527428092,-0.0007476920729381247,0.008178835736629282,0.2235141527428092,0.089,-0.035,9.81319,8.931485652923584,0.037,0.018,0.5,0.0,0.0,-0.0,1.0,0.0,0.0,0.0,0.0,0.0,0.0,0.0,0.0,0.0,8.931485652923584,3.9210000038146973,False,True,False,True,True,False,False
