,t,x,y,z,qx,qy,qz,qw,yaw,pitch,roll,vx,vy,vz,wx,wy,wz,ros_timestamp,x_poses,y_poses,z_poses,qx_poses,qy_poses,qz_poses,qw_poses,yaw_poses,pitch_poses,roll_poses,m1_thrust,m2_thrust,m3_thrust,m4_thrust,m1_erpm,m2_erpm,m3_erpm,m4_erpm,ros_timestamp_motors,thrust,torque_roll,torque_pitch,torch_yaw,ax,ay,az,ros_timestamp_image_accel,x_setpoint,y_setpoint,z_setpoint,qx_setpoint,qy_setpoint,qz_setpoint,qw_setpoint,yaw_setpoint,pitch_setpoint,roll_setpoint,vx_setpoint,vy_setpoint,vz_setpoint,wx_setpoint,wy_setpoint,wz_setpoint,ros_timestamp_setpoint,Vbat,can_be_armed,is_armed,auto_arm,can_fly,is_flying,is_tumbled,is_locked
0,0.0,0.003,0.036,0.052,-0.006918853148818016,-0.0,-0.0013837706064805388,0.9999750852584839,-0.0027674758,-1.914821e-05,-0.013837803,-0.003,0.009,0.122,0.062,0.116,-0.003,16.462832927703857,0.004458586685359478,0.037027839571237564,0.05792621150612831,,,,,,,,0.6259098191805905,0.6695506218051422,0.7418173495078966,0.7155718318455787,109100.0,108700.0,110300.0,109500.0,16.460585832595825,0.5381399252307927,0.05391012436102846,1.5259021896696422e-05,0.5381399252307927,0.081,0.127,14.786190000000001,16.460585832595825,0.004,0.036,0.052,0.0,0.0,-0.0013837706064805388,0.9999990463256836,-0.0027675421,0.0,0.0,0.0,0.0,0.012,0.0,0.0,0.0,16.45588254928589,3.489000082015991,False,True,False,True,True,False,False
1,0.01,0.003,0.036,0.052,-0.006918853148818016,-0.0,-0.0013837706064805388,0.9999750852584839,-0.0027674758,-1.914821e-05,-0.013837803,-0.003,0.009,0.122,0.062,0.116,-0.003,16.462832927703857,0.004458586685359478,0.037027839571237564,0.05792621150612831,,,,,,,,0.6259098191805905,0.6695506218051422,0.7418173495078966,0.7155718318455787,109100.0,108700.0,110300.0,109500.0,16.460585832595825,0.5381399252307927,0.05391012436102846,1.5259021896696422e-05,0.5381399252307927,0.081,0.127,14.786190000000001,16.460585832595825,0.004,0.036,0.052,0.0,0.0,-0.0013837706064805388,0.9999990463256836,-0.0027675421,0.0,0.0,0.0,0.0,0.012,0.0,0.0,0.0,16.45588254928589,3.489000082015991,False,True,False,True,True,False,False
2,0.02,0.003,0.036,0.05,-0.006918853148818016,-0.0013837706064805388,-0.0013837706064805388,0.9999741315841675,-0.0027483357,-0.0027866215,-0.013834015,-0.023,0.011,0.151,-0.025,0.007,-0.027,16.475178480148315,0.004497935995459557,0.0370207279920578,0.06048726290464401,,,,,,,,0.6948653391317616,0.5818875410086214,0.5180437933928436,0.6223544670786603,106400.0,106800.0,109500.0,108700.0,16.478550910949707,0.24887464713511864,-0.06749065384908827,-0.001007095445181964,0.24887464713511864,-0.043,0.188,14.08919,16.478550910949707,0.004,0.036,0.052,0.0,0.0,-0.0013837706064805388,0.9999990463256836,-0.0027675421,0.0,0.0,0.0,0.0,0.019,0.0,0.0,0.0,16.47574782371521,3.609999895095825,False,True,False,True,True,False,False
3,0.03,0.003,0.036,0.056,-0.005535082425922155,-0.0,-0.0013837706064805388,0.9999837279319763,-0.0027674998,-1.5318568e-05,-0.011070211,-0.01,0.005,0.255,0.146,0.23,0.016,16.493143558502197,0.004497935995459557,0.0370207279920578,0.06048726290464401,,,,,,,,0.615732051575494,0.5663538567177844,0.5285420004577707,0.5687037460898756,109100.0,105300.0,103100.0,106400.0,16.488285779953003,0.1803158617532616,-0.0349584191653315,-0.00434882124055848,0.1803158617532616,0.139,-0.069,13.21419,16.488285779953003,0.004,0.036,0.053,0.0,0.0,-0.0013837706064805388,0.9999990463256836,-0.0027675421,0.0,0.0,0.0,0.0,0.024,0.0,0.0,0.0,16.488223791122437,3.609999895095825,False,True,False,True,True,False,False
4,0.04,0.004,0.036,0.058,-0.004151311703026295,0.0027675412129610777,-0.0013837706064805388,0.9999865889549255,-0.0027905281,0.0055235475,-0.008310393,0.012,-0.015,0.299,0.184,0.19,0.011,16.502878427505493,0.004775921814143658,0.037249352782964706,0.06666147708892822,,,,,,,,0.5078507667658503,0.5380025940337224,0.5640039673456931,0.541237506675822,105300.0,102000.0,102000.0,102700.0,16.50076174736023,0.5484397650110628,-0.012954909590295263,0.0019226367589837492,0.5484397650110628,0.327,-0.272,12.312190000000001,16.50076174736023,0.004,0.036,0.053,0.0,0.0,-0.0013837706064805388,0.9999990463256836,-0.0027675421,0.0,0.0,0.0,0.0,0.029,0.0,0.0,0.0,16.496553421020508,3.609999895095825,False,True,False,True,True,False,False
5,0.05,0.004,0.036,0.058,-0.004151311703026295,0.0027675412129610777,-0.0013837706064805388,0.9999865889549255,-0.0027905281,0.0055235475,-0.008310393,0.012,-0.015,0.299,0.184,0.19,0.011,16.502878427505493,0.004775921814143658,0.037249352782964706,0.06666147708892822,,,,,,,,0.5078507667658503,0.5380025940337224,0.5640039673456931,0.541237506675822,105300.0,102000.0,102000.0,102700.0,16.50076174736023,0.5484397650110628,-0.012954909590295263,0.0019226367589837492,0.5484397650110628,0.327,-0.272,12.312190000000001,16.50076174736023,0.004,0.036,0.053,0.0,0.0,-0.0013837706064805388,0.9999990463256836,-0.0027675421,0.0,0.0,0.0,0.0,0.029,0.0,0.0,0.0,16.496553421020508,3.609999895095825,False,True,False,True,True,False,False
6,0.06,0.004,0.036,0.062,-0.0027675412129610777,0.005535082425922155,-0.0013837706064805388,0.9999799132347107,-0.0027982977,0.011062509,-0.005550658,0.034,-0.022,0.337,0.012,-0.085,-0.011,16.51535439491272,0.00503727700561285,0.03751949965953827,0.07332468032836914,,,,,,,,0.41953154802777143,0.48557259479667353,0.6139620050354773,0.5575646601052873,98000.0,99300.0,101000.0,99300.0,16.519546031951904,0.8762798504615854,0.0447699702449073,0.0023041123064011597,0.8762798504615854,0.244,-0.007,11.379190000000001,16.519546031951904,0.004,0.036,0.054,0.0,0.0,-0.0013837706064805388,0.9999990463256836,-0.0027675421,0.0,0.0,0.0,0.0,0.04,0.0,0.0,0.0,16.516872882843018,3.7160000801086426,False,True,False,True,True,False,False
7,0.07,0.005,0.037,0.065,-0.005535082425922155,0.004151311703026295,-0.0013837706064805388,0.9999750852584839,-0.0028135283,0.008287193,-0.011081985,0.052,0.008,0.373,-0.254,-0.447,-0.018,16.534138679504395,0.005084424279630184,0.03757377713918686,0.07708702981472015,,,,,,,,0.4172274357213703,0.4870222018768597,0.5367055771725032,0.489066910811017,93800.0,97700.0,102000.0,97100.0,16.52941083908081,0.154009308003357,-0.019378957808804456,-0.0021210040436408025,0.154009308003357,0.07,0.136,10.761190000000001,16.52941083908081,0.004,0.036,0.054,0.0,0.0,-0.0013837706064805388,0.9999990463256836,-0.0027675421,0.0,0.0,0.0,0.0,0.047,0.0,0.0,0.0,16.52711272239685,3.7160000801086426,False,True,False,True,True,False,False
8,0.08,0.005,0.037,0.074,-0.006918853148818016,0.0013837706064805388,-0.0013837706064805388,0.9999741315841675,-0.0027866322,0.002748325,-0.013841673,0.039,0.011,0.405,-0.184,-0.502,-0.029,16.5440034866333,0.005369595251977444,0.037775881588459015,0.08077659457921982,,,,,,,,0.5067826352330815,0.5057755397878996,0.4443427176317998,0.44242008087281604,91700.0,95200.0,99300.0,94600.0,16.539650678634644,0.9547570000762952,-0.08543526359960327,-0.0015564202334630351,0.9547570000762952,0.0,0.126,10.31719,16.539650678634644,0.004,0.036,0.055,0.0,0.0,-0.0013837706064805388,0.9999990463256836,-0.0027675421,0.0,0.0,0.0,0.0,0.062,0.0,0.0,0.0,16.545907020568848,3.7160000801086426,False,True,False,True,True,False,False
9,0.09,0.005,0.036,0.078,-0.006918853148818016,-0.0,-0.0013837706064805388,0.9999750852584839,-0.0027674758,-1.914821e-05,-0.013837803,0.048,-0.003,0.415,0.026,-0.4,0.005,16.554243326187134,0.005360147915780544,0.037909362465143204,0.08446866273880005,,,,,,,,0.5229571984435798,0.5378805218585488,0.5074235141527428,0.4984817273212787,90100.0,93800.0,94900.0,93200.0,16.548858404159546,0.9525597009231708,-0.07057297627222095,-0.00456244754711223,0.9525597009231708,-0.077,0.107,9.67519,16.548858404159546,0.004,0.036,0.056,0.0,0.0,-0.0013837706064805388,0.9999990463256836,-0.0027675421,0.0,0.0,0.0,0.0,0.07,0.0,0.0,0.0,16.556222438812256,3.7160000801086426,False,True,False,True,True,False,False
10,0.1,0.005,0.037,0.076,-0.006918853148818016,-0.0027675412129610777,-0.0013837706064805388,0.9999712705612183,-0.0027292108,-0.0055541005,-0.013830303,0.034,0.012,0.382,0.201,-0.276,-0.005,16.563451051712036,0.005425696261227131,0.037976283580064774,0.08812254667282104,,,,,,,,0.49497215228503855,0.5014114595254444,0.5046158541237507,0.497261005569543,91700.0,92600.0,93500.0,90900.0,16.55844497680664,0.9525597009231708,-0.07057297627222095,-0.00456244754711223,0.9525597009231708,-0.063,0.068,9.34219,16.55844497680664,0.004,0.036,0.056,0.0,0.0,-0.0013837706064805388,0.9999990463256836,-0.0027675421,0.0,0.0,0.0,0.0,0.079,0.0,0.0,0.0,16.566593885421753,3.7790000438690186,False,True,False,True,True,False,False
11,0.11,0.005,0.037,0.084,-0.006918853148818016,-0.005535082425922155,-0.0013837706064805388,0.9999597668647766,-0.0026910056,-0.011089095,-0.013823121,0.033,0.014,0.394,0.211,-0.199,0.003,16.57303762435913,0.005623753182590008,0.03811854124069214,0.09172096103429794,,,,,,,,0.5032730601968414,0.5155413138017853,0.5067826352330815,0.496406500343328,89800.0,93200.0,94000.0,90100.0,16.56876039505005,0.04385442893110551,-0.05873197528038453,-0.005539024948500801,0.04385442893110551,-0.073,0.042,9.184190000000001,16.56876039505005,0.004,0.036,0.057,0.0,0.0,-0.0013837706064805388,0.9999990463256836,-0.0027675421,0.0,0.0,0.0,0.0,0.088,0.0,0.0,0.0,16.57702922821045,3.7790000438690186,False,True,False,True,True,False,False
12,0.12,0.005,0.037,0.088,-0.005535082425922155,-0.005535082425922155,-0.0013837706064805388,0.999968409538269,-0.0027063491,-0.011085361,-0.0110554015,0.028,0.018,0.39,0.209,-0.167,-0.004,16.58335304260254,0.0056494055315852165,0.03829328715801239,0.09531981498003006,,,,,,,,0.49571984435797667,0.5167772945754178,0.5322194247348745,0.5147631036850537,88800.0,92600.0,92900.0,90100.0,16.579131841659546,0.2712138551918822,-0.011932555123216601,-0.0014953841458762494,0.2712138551918822,-0.055,0.001,8.972190000000001,16.579131841659546,0.004,0.036,0.058,0.0,0.0,-0.0013837706064805388,0.9999990463256836,-0.0027675421,0.0,0.0,0.0,0.0,0.098,0.0,0.0,0.0,16.587079524993896,3.7790000438690186,False,True,False,True,True,False,False
13,0.13,0.005,0.037,0.091,-0.005535082425922155,-0.006918853148818016,-0.0013837706064805388,0.9999597668647766,-0.0026910985,-0.013852911,-0.011051857,0.028,0.03,0.381,0.208,-0.178,0.006,16.593724489212036,0.005796315148472786,0.03844703361392021,0.09884235262870789,,,,,,,,0.49446860456244757,0.5232776379034104,0.5501945525291829,0.5141832608529793,88000.0,93500.0,92600.0,88800.0,16.589567184448242,0.2712138551918822,-0.011932555123216601,-0.0014953841458762494,0.2712138551918822,-0.1,-0.069,8.84819,16.589567184448242,0.004,0.036,0.058,0.0,0.0,-0.0013837706064805388,0.9999990463256836,-0.0027675421,0.0,0.0,0.0,0.0,0.098,0.0,0.0,0.0,16.587079524993896,3.7790000438690186,False,True,False,True,True,False,False
14,0.14,0.005,0.038,0.097,-0.004151311703026295,-0.00830262340605259,-0.0013837706064805388,0.999955952167511,-0.0026988615,-0.016616767,-0.0082805175,0.024,0.033,0.377,0.214,-0.154,0.014,16.604159832000732,0.005900704301893711,0.03858666121959686,0.10213769972324371,,,,,,,,0.5603265430685893,0.5592584115358206,0.5877622644388495,0.5890745403219654,88800.0,93500.0,93500.0,89800.0,16.59961748123169,0.6532082093537804,-0.016388189517051958,-0.00166323338673991,0.6532082093537804,-0.129,-0.072,8.700190000000001,16.59961748123169,0.004,0.036,0.059,0.0,0.0,-0.0013837706064805388,0.9999990463256836,-0.0027675421,0.0,0.0,0.0,0.0,0.108,0.0,0.0,0.0,16.599108695983887,3.7790000438690186,False,True,False,True,True,False,False
15,0.15,0.005,0.038,0.092,-0.004151311703026295,-0.009686394594609737,-0.0013837706064805388,0.9999434947967529,-0.0026874705,-0.019384397,-0.008276996,0.015,0.041,0.341,0.213,-0.082,0.004,16.61421012878418,0.005979911424219608,0.038732435554265976,0.10537894070148468,,,,,,,,0.59316395819028,0.5170214389257649,0.5297169451438163,0.605676356145571,89800.0,93200.0,94300.0,90900.0,16.61164665222168,0.8072938124666209,-0.01927214465552758,-0.0009002822919050889,0.8072938124666209,-0.184,-0.018,8.82419,16.61164665222168,0.004,0.036,0.06,0.0,0.0,-0.0013837706064805388,0.9999990463256836,-0.0027675421,0.0,0.0,0.0,0.0,0.118,0.0,0.0,0.0,16.606154918670654,3.7790000438690186,False,True,False,True,True,False,False
16,0.16,0.005,0.038,0.1,-0.0027675412129610777,-0.009686394594609737,-0.0013837706064805388,0.9999483227729797,-0.0027142963,-0.01938066,-0.005509051,0.01,0.04,0.351,0.211,0.066,0.005,16.62623929977417,0.006345551460981369,0.03906498849391937,0.11177350580692291,,,,,,,,0.6007629510948348,0.5632257572289616,0.5731746395056077,0.6043030441748684,92600.0,92900.0,94000.0,92900.0,16.628795862197876,0.25436789501792934,0.006897077897306782,0.0003509575036240177,0.25436789501792934,-0.116,-0.039,9.18119,16.628795862197876,0.004,0.036,0.064,0.0,0.0,-0.0013837706064805388,0.9999990463256836,-0.0027675421,0.0,0.0,0.0,0.0,0.153,0.0,0.0,0.0,16.63808536529541,3.7790000438690186,False,True,False,True,True,False,False
17,0.17,0.005,0.038,0.1,-0.0027675412129610777,-0.009686394594609737,-0.0013837706064805388,0.9999483227729797,-0.0027142963,-0.01938066,-0.005509051,0.01,0.04,0.351,0.211,0.066,0.005,16.62623929977417,0.006345551460981369,0.03906498849391937,0.11177350580692291,,,,,,,,0.6007629510948348,0.5632257572289616,0.5731746395056077,0.6043030441748684,92600.0,92900.0,94000.0,92900.0,16.628795862197876,0.25436789501792934,0.006897077897306782,0.0003509575036240177,0.25436789501792934,-0.116,-0.039,9.18119,16.628795862197876,0.004,0.036,0.064,0.0,0.0,-0.0013837706064805388,0.9999990463256836,-0.0027675421,0.0,0.0,0.0,0.0,0.153,0.0,0.0,0.0,16.63808536529541,3.7790000438690186,False,True,False,True,True,False,False
18,0.18,0.005,0.038,0.108,-0.0,-0.009686394594609737,-0.0013837706064805388,0.9999521374702454,-0.0027679317,-0.019373074,2.6812528e-05,0.005,0.037,0.333,0.226,0.17,0.014,16.643388509750366,0.0066663529723882675,0.039101742208004,0.11500222980976105,,,,,,,,0.6106202792401008,0.63247119859617,0.6550545510032807,0.6369878690775921,93800.0,94900.0,95200.0,95200.0,16.639209747314453,0.7157549401083391,0.07605096513313496,4.5777065690089265e-05,0.7157549401083391,-0.063,-0.068,9.280190000000001,16.639209747314453,0.004,0.036,0.066,0.0,0.0,-0.0013837706064805388,0.9999990463256836,-0.0027675421,0.0,0.0,0.0,0.0,0.165,0.0,0.0,0.0,16.647011518478394,3.7679998874664307,False,True,False,True,True,False,False
19,0.19,0.005,0.039,0.105,-0.0,-0.009686394594609737,-0.0013837706064805388,0.9999521374702454,-0.0027679317,-0.019373074,2.6812528e-05,-0.006,0.054,0.303,0.214,0.153,0.004,16.653802394866943,0.00661233626306057,0.039299968630075455,0.11774932593107224,,,,,,,,0.6542610818646525,0.6316777294575417,0.6396124208438239,0.6627450980392157,95200.0,96200.0,97100.0,96500.0,16.650623321533203,0.7157549401083391,0.07605096513313496,4.5777065690089265e-05,0.7157549401083391,-0.038,-0.093,9.41619,16.650623321533203,0.004,0.036,0.066,0.0,0.0,-0.0013837706064805388,0.9999990463256836,-0.0027675421,0.0,0.0,0.0,0.0,0.165,0.0,0.0,0.0,16.647011518478394,3.7679998874664307,False,True,False,True,True,False,False
20,0.2,0.005,0.039,0.108,0.0013837706064805388,-0.00830262340605259,-0.0013837706064805388,0.999963641166687,-0.0027908066,-0.016601576,0.0027908066,-0.006,0.057,0.297,0.223,0.159,0.009,16.665215969085693,0.0069510554894804955,0.03939475864171982,0.12366292625665665,,,,,,,,0.6215762569619288,0.6434882124055848,0.6560311284046693,0.6249027237354086,100300.0,102700.0,101000.0,98400.0,16.672754526138306,0.8543221179522392,0.03433279926756695,0.0016021972991531242,0.8543221179522392,-0.019,-0.215,10.24619,16.672754526138306,0.004,0.036,0.069,0.0,0.0,-0.0013837706064805388,0.9999990463256836,-0.0027675421,0.0,0.0,0.0,0.0,0.191,0.0,0.0,0.0,16.665799140930176,3.7679998874664307,False,True,False,True,True,False,False
21,0.21,0.005,0.039,0.108,0.0013837706064805388,-0.00830262340605259,-0.0013837706064805388,0.999963641166687,-0.0027908066,-0.016601576,0.0027908066,-0.006,0.057,0.297,0.223,0.159,0.009,16.665215969085693,0.0069510554894804955,0.03939475864171982,0.12366292625665665,,,,,,,,0.6215762569619288,0.6434882124055848,0.6560311284046693,0.6249027237354086,100300.0,102700.0,101000.0,98400.0,16.672754526138306,0.8543221179522392,0.03433279926756695,0.0016021972991531242,0.8543221179522392,-0.019,-0.215,10.24619,16.672754526138306,0.004,0.036,0.069,0.0,0.0,-0.0013837706064805388,0.9999990463256836,-0.0027675421,0.0,0.0,0.0,0.0,0.191,0.0,0.0,0.0,16.665799140930176,3.7679998874664307,False,True,False,True,True,False,False
22,0.22,0.005,0.039,0.108,0.0013837706064805388,-0.00830262340605259,-0.0013837706064805388,0.999963641166687,-0.0027908066,-0.016601576,0.0027908066,-0.006,0.057,0.297,0.223,0.159,0.009,16.665215969085693,0.0069510554894804955,0.03939475864171982,0.12366292625665665,,,,,,,,0.6215762569619288,0.6434882124055848,0.6560311284046693,0.6249027237354086,100300.0,102700.0,101000.0,98400.0,16.672754526138306,0.8543221179522392,0.03433279926756695,0.0016021972991531242,0.8543221179522392,-0.019,-0.215,10.24619,16.672754526138306,0.004,0.036,0.069,0.0,0.0,-0.0013837706064805388,0.9999990463256836,-0.0027675421,0.0,0.0,0.0,0.0,0.191,0.0,0.0,0.0,16.665799140930176,3.7679998874664307,False,True,False,True,True,False,False
23,0.23,0.005,0.039,0.119,0.004151311703026295,-0.006918853148818016,-0.0013837706064805388,0.9999665021896362,-0.002825167,-0.013826194,0.008322385,-0.019,0.045,0.318,0.244,0.118,0.023,16.687347173690796,0.007015733048319817,0.03958815708756447,0.1299675703048706,,,,,,,,0.6525520714122225,0.6430914778362707,0.6658579385061417,0.6728770885786222,101000.0,104200.0,103400.0,100300.0,16.688788175582886,0.32188906691081104,0.003341725795376516,-0.0003356984817273213,0.32188906691081104,-0.057,-0.279,10.594190000000001,16.688788175582886,0.004,0.036,0.076,0.0,0.0,-0.0013837706064805388,0.9999990463256836,-0.0027675421,0.0,0.0,0.0,0.0,0.232,0.0,0.0,0.001,16.697769165039062,3.7049999237060547,False,True,False,True,True,False,False
24,0.24,0.005,0.039,0.124,0.006918853148818016,-0.006918853148818016,-0.0013837706064805388,0.999951183795929,-0.0028634246,-0.013818323,0.013857946,-0.021,0.043,0.32,0.109,0.177,0.011,16.703380823135376,0.007089882157742977,0.03962681442499161,0.1332114189863205,,,,,,,,0.649408712901503,0.6287785152971694,0.6695506218051422,0.6823682001983673,103400.0,104200.0,104500.0,103100.0,16.698734760284424,0.9451438162813763,-0.026535439078355077,0.0023041123064011597,0.9451438162813763,-0.061,-0.253,10.879190000000001,16.698734760284424,0.004,0.036,0.078,0.0,0.0,-0.0013837706064805388,0.9999990463256836,-0.0027675421,0.0,0.0,0.0,0.0,0.246,0.0,0.0,0.001,16.70935845375061,3.7049999237060547,False,True,False,True,True,False,False
25,0.25,0.006,0.039,0.128,0.006918853148818016,-0.005535082425922155,-0.0013837706064805388,0.9999597668647766,-0.0028442002,-0.011050796,0.013853757,-0.02,0.046,0.332,0.068,0.213,0.02,16.713327407836914,0.00726307462900877,0.0395921990275383,0.1365428864955902,,,,,,,,0.6404364080262455,0.6426947432669566,0.6686045624475471,0.6690318150606546,103800.0,104900.0,105300.0,103100.0,16.710307121276855,0.9451438162813763,-0.026535439078355077,0.0023041123064011597,0.9451438162813763,-0.059,-0.248,11.062190000000001,16.710307121276855,0.004,0.036,0.078,0.0,0.0,-0.0013837706064805388,0.9999990463256836,-0.0027675421,0.0,0.0,0.0,0.0,0.246,0.0,0.0,0.001,16.70935845375061,3.7049999237060547,False,True,False,True,True,False,False
26,0.26,0.006,0.039,0.132,0.006918853148818016,-0.004151311703026295,-0.0013837706064805388,0.9999665021896362,-0.002824994,-0.008283292,0.01384965,-0.02,0.043,0.345,0.052,0.153,0.006,16.724899768829346,0.007452213205397129,0.03949804604053497,0.1435202956199646,,,,,,,,0.7101091020065614,0.6912489509422446,0.6988784618905928,0.7016861219195849,105300.0,105300.0,106400.0,105300.0,16.729884386062622,0.601052872510872,0.008239871824216068,0.0006103608758678569,0.601052872510872,0.048,-0.288,11.370190000000001,16.729884386062622,0.004,0.036,0.086,0.0,0.0,-0.0013837706064805388,0.9999990463256836,-0.0027675421,0.0,0.0,0.0,0.0,0.289,0.0,0.0,0.001,16.737582445144653,3.700000047683716,False,True,False,True,True,False,False
27,0.27,0.006,0.039,0.132,0.006918853148818016,-0.004151311703026295,-0.0013837706064805388,0.9999665021896362,-0.002824994,-0.008283292,0.01384965,-0.02,0.043,0.345,0.052,0.153,0.006,16.724899768829346,0.007452213205397129,0.03949804604053497,0.1435202956199646,,,,,,,,0.7101091020065614,0.6912489509422446,0.6988784618905928,0.7016861219195849,105300.0,105300.0,106400.0,105300.0,16.729884386062622,0.601052872510872,0.008239871824216068,0.0006103608758678569,0.601052872510872,0.048,-0.288,11.370190000000001,16.729884386062622,0.004,0.036,0.086,0.0,0.0,-0.0013837706064805388,0.9999990463256836,-0.0027675421,0.0,0.0,0.0,0.0,0.289,0.0,0.0,0.001,16.737582445144653,3.700000047683716,False,True,False,True,True,False,False
28,0.28,0.006,0.039,0.137,0.006918853148818016,-0.0027675412129610777,-0.0013837706064805388,0.9999712705612183,-0.0028058046,-0.0055158036,0.013845621,-0.021,0.04,0.363,0.062,0.175,0.01,16.736489057540894,0.007646187208592892,0.03949965909123421,0.14736005663871765,,,,,,,,0.6937819485770962,0.7161821927214466,0.6958876935988403,0.6888075074387732,106800.0,106000.0,106800.0,105300.0,16.739443063735962,0.3265735866330968,0.016739147020675974,0.001953154802777142,0.3265735866330968,0.036,-0.308,11.31719,16.739443063735962,0.004,0.036,0.086,0.0,0.0,-0.0013837706064805388,0.9999990463256836,-0.0027675421,0.0,0.0,0.0,0.0,0.289,0.0,0.0,0.001,16.737582445144653,3.700000047683716,False,True,False,True,True,False,False
29,0.29,0.006,0.04,0.136,0.00830262340605259,-0.0013837706064805388,-0.0013837706064805388,0.999963641166687,-0.0027904327,-0.0027444663,0.016609298,-0.023,0.037,0.349,0.096,0.124,-0.014,16.754035711288452,0.007820112630724907,0.039442338049411774,0.1513212025165558,,,,,,,,0.6531013962005036,0.6581673914702068,0.6501716639963379,0.6455329213397422,105600.0,107500.0,108700.0,106000.0,16.750120401382446,0.7266346227206836,-0.0009308003356984818,-0.0006713969634546426,0.7266346227206836,0.025,-0.291,11.49919,16.750120401382446,0.004,0.036,0.089,0.0,0.0,-0.0013837706064805388,0.9999990463256836,-0.0027675421,0.0,0.0,0.0,0.0,0.304,0.0,0.0,0.001,16.74654769897461,3.700000047683716,False,True,False,True,True,False,False
30,0.3,0.006,0.04,0.146,0.00830262340605259,-0.0013837706064805388,-0.0013837706064805388,0.999963641166687,-0.0027904327,-0.0027444663,0.016609298,-0.022,0.037,0.402,0.092,0.091,0.006,16.764713048934937,0.008015196770429611,0.03931998834013939,0.15539810061454773,,,,,,,,0.6638437476157778,0.6323796444647898,0.6322880903334096,0.6603341725795376,106400.0,108300.0,106800.0,106000.0,16.759085655212402,0.5156939040207523,0.02822919050888838,7.629510948348211e-05,0.5156939040207523,0.048,-0.335,11.67819,16.759085655212402,0.004,0.036,0.092,0.0,0.0,-0.0013837706064805388,0.9999990463256836,-0.0027675421,0.0,0.0,0.0,0.0,0.319,0.0,0.0,0.001,16.75740098953247,3.688999891281128,False,True,False,True,True,False,False
31,0.31,0.006,0.04,0.15,0.009686394594609737,-0.0013837706064805388,-0.0013837706064805388,0.999951183795929,-0.0027942278,-0.0027406022,0.019376958,-0.025,0.034,0.42,0.058,0.151,0.012,16.773678302764893,0.00828462466597557,0.039152488112449646,0.15970996022224426,,,,,,,,0.6372014953841458,0.625787747005417,0.6371709773403524,0.6513313496604868,106400.0,106000.0,106400.0,106400.0,16.769938945770264,0.3232013427939269,0.010833905546654459,0.0040131227588311585,0.3232013427939269,0.114,-0.371,11.52919,16.769938945770264,0.004,0.036,0.095,0.0,0.0,-0.0013837706064805388,0.9999990463256836,-0.0027675421,0.0,0.0,0.0,0.0,0.333,0.0,0.0,0.001,16.767113208770752,3.688999891281128,False,True,False,True,True,False,False
32,0.32,0.006,0.039,0.154,0.009686394594609737,0.0,-0.0013837706064805388,0.9999521374702454,-0.0027674122,2.6807496e-05,0.019373072,-0.023,0.028,0.441,0.012,0.154,0.003,16.784531593322754,0.00828462466597557,0.039152488112449646,0.15970996022224426,,,,,,,,0.6542763408865492,0.6659647516594186,0.6676737621118486,0.6680094605935759,106000.0,106400.0,106000.0,106400.0,16.779651165008545,0.8589913786526283,-0.01475547417410544,-0.0038300144960708017,0.8589913786526283,0.157,-0.376,11.309190000000001,16.779651165008545,0.004,0.036,0.099,0.0,0.0,-0.0013837706064805388,0.9999990463256836,-0.0027675421,0.0,0.0,0.0,0.0,0.348,0.0,0.0,0.001,16.775902032852173,3.688999891281128,False,True,False,True,True,False,False
33,0.33,0.006,0.039,0.152,0.009686394594609737,0.0013837706064805388,-0.0013837706064805388,0.999951183795929,-0.002740613,0.002794217,0.0193693,-0.019,0.027,0.44,-0.008,0.11,-0.005,16.794243812561035,0.008620601147413254,0.03878165781497955,0.16879720985889435,,,,,,,,0.6140077821011674,0.6663157091630426,0.6644235904478523,0.6212710765239948,104200.0,106400.0,105600.0,106000.0,16.788439989089966,0.6808117799649043,0.021423666742961776,0.001266498817425803,0.6808117799649043,0.17,-0.342,11.277190000000001,16.788439989089966,0.004,0.036,0.102,0.0,0.0,-0.0013837706064805388,0.9999990463256836,-0.0027675421,0.0,0.0,0.0,0.0,0.363,0.0,0.0,0.001,16.786215782165527,3.688999891281128,False,True,False,True,True,False,False
34,0.34,0.007,0.039,0.16,0.009686394594609737,0.0013837706064805388,-0.0013837706064805388,0.999951183795929,-0.002740613,0.002794217,0.0193693,-0.018,0.027,0.469,0.013,0.008,0.0,16.803032636642456,0.00900499988347292,0.03859001770615578,0.17361512780189514,,,,,,,,0.61362630655375,0.6730449378194858,0.6554055085069047,0.6092927443350881,105300.0,106800.0,106400.0,105300.0,16.79875373840332,0.6808117799649043,0.021423666742961776,0.001266498817425803,0.6808117799649043,0.176,-0.339,11.16319,16.79875373840332,0.004,0.036,0.106,0.0,0.0,-0.0013837706064805388,0.9999990463256836,-0.0027675421,0.0,0.0,0.0,0.0,0.378,0.0,0.0,0.001,16.798978328704834,3.7100000381469727,False,True,False,True,True,False,False
35,0.35000000000000003,0.006,0.039,0.165,0.01107016485184431,0.0013837706064805388,-0.0013837706064805388,0.9999368190765381,-0.0027367433,0.0027980073,0.022136996,-0.024,0.009,0.483,-0.002,-0.018,-0.005,16.81334638595581,0.009273437783122063,0.038328077644109726,0.17843008041381836,,,,,,,,0.5954680704966812,0.5989166094453345,0.6137178606851301,0.6294346532387274,104200.0,108700.0,105300.0,102400.0,16.811516284942627,0.29536888685435264,0.012787060349431601,-0.000686655985351339,0.29536888685435264,0.109,-0.358,10.991190000000001,16.811516284942627,0.004,0.036,0.11,0.0,0.0,-0.0013837706064805388,0.9999990463256836,-0.0027675421,0.0,0.0,0.0,0.0,0.392,0.0,0.0,0.002,16.80599284172058,3.7100000381469727,False,True,False,True,True,False,False
36,0.36,0.008,0.038,0.175,0.01107016485184431,0.0013837706064805388,-0.0013837706064805388,0.9999368190765381,-0.0027367433,0.0027980073,0.022136996,-0.022,0.003,0.514,-0.086,0.006,-0.01,16.826108932495117,0.009790058247745037,0.03777490556240082,0.188521146774292,,,,,,,,0.6498664835584039,0.6302433813992523,0.633173113603418,0.6608529793240253,101700.0,104200.0,105300.0,104500.0,16.828999042510986,0.2819256885633631,-0.052597848477912566,-0.004791332875562677,0.2819256885633631,0.082,-0.321,10.63119,16.828999042510986,0.004,0.036,0.118,0.0,0.0,-0.0013837706064805388,0.9999990463256836,-0.0027675421,0.0,0.0,0.0,0.0,0.421,0.0,0.0,0.002,16.825708866119385,3.7100000381469727,False,True,False,True,True,False,False
37,0.37,0.008,0.038,0.175,0.01107016485184431,0.0013837706064805388,-0.0013837706064805388,0.9999368190765381,-0.0027367433,0.0027980073,0.022136996,-0.022,0.003,0.514,-0.086,0.006,-0.01,16.826108932495117,0.009790058247745037,0.03777490556240082,0.188521146774292,,,,,,,,0.6498664835584039,0.6302433813992523,0.633173113603418,0.6608529793240253,101700.0,104200.0,105300.0,104500.0,16.828999042510986,0.2819256885633631,-0.052597848477912566,-0.004791332875562677,0.2819256885633631,0.082,-0.321,10.63119,16.828999042510986,0.004,0.036,0.118,0.0,0.0,-0.0013837706064805388,0.9999990463256836,-0.0027675421,0.0,0.0,0.0,0.0,0.421,0.0,0.0,0.002,16.825708866119385,3.7100000381469727,False,True,False,True,True,False,False
38,0.38,0.008,0.038,0.179,0.009686394594609737,0.0013837706064805388,-0.0013837706064805388,0.999951183795929,-0.002740613,0.002794217,0.0193693,-0.021,0.001,0.507,-0.184,0.126,0.005,16.843591690063477,0.010227885097265244,0.03750969469547272,0.19366401433944702,,,,,,,,0.6111848630502785,0.6619668879224841,0.6743266956588083,0.6290989547570001,104200.0,103100.0,105300.0,104200.0,16.838246822357178,0.2819256885633631,-0.052597848477912566,-0.004791332875562677,0.2819256885633631,0.178,-0.267,10.748190000000001,16.838246822357178,0.004,0.036,0.122,0.0,0.0,-0.0013837706064805388,0.9999990463256836,-0.0027675421,0.0,0.0,0.0,0.0,0.435,0.0,0.0,0.002,16.84127378463745,3.7100000381469727,False,True,False,True,True,False,False
39,0.39,0.007,0.038,0.184,0.00830262340605259,0.0027675412129610777,-0.0013837706064805388,0.999960720539093,-0.0027215222,0.005557872,0.016597955,-0.02,0.001,0.516,-0.162,0.026,0.008,16.852839469909668,0.0106649873778224,0.037234749644994736,0.19891871511936188,,,,,,,,0.6438544289311056,0.6520637827115282,0.6043640802624551,0.6108644235904479,101400.0,105300.0,105300.0,104500.0,16.853811740875244,0.19665827420462348,0.04802014190890364,-0.00187685969329366,0.19665827420462348,0.149,-0.28,10.72619,16.853811740875244,0.004,0.036,0.126,0.0,0.0,-0.0013837706064805388,0.9999990463256836,-0.0027675421,0.0,0.0,0.0,0.0,0.449,0.0,0.0,0.002,16.845545291900635,3.7100000381469727,False,True,False,True,True,False,False
40,0.4,0.009,0.037,0.192,0.00830262340605259,0.0027675412129610777,-0.0013837706064805388,0.999960720539093,-0.0027215222,0.005557872,0.016597955,-0.02,-0.02,0.537,-0.098,-0.029,-0.003,16.868404388427734,0.011233747936785221,0.03648286312818527,0.20961786806583405,,,,,,,,0.61879911497673,0.6288700694285496,0.6360418097199969,0.637994964522774,103400.0,104200.0,102400.0,102000.0,16.86948561668396,0.8976424811169604,-0.033676661326009,-0.003143358510719463,0.8976424811169604,0.157,-0.299,10.56419,16.86948561668396,0.004,0.036,0.135,0.0,0.0,-0.0013837706064805388,0.9999990463256836,-0.0027675421,0.0,0.0,0.0,0.0,0.476,0.0,0.0,0.002,16.866862058639526,3.7100000381469727,False,True,False,True,True,False,False
41,0.41000000000000003,0.009,0.037,0.192,0.00830262340605259,0.0027675412129610777,-0.0013837706064805388,0.999960720539093,-0.0027215222,0.005557872,0.016597955,-0.02,-0.02,0.537,-0.098,-0.029,-0.003,16.868404388427734,0.011233747936785221,0.03648286312818527,0.20961786806583405,,,,,,,,0.61879911497673,0.6288700694285496,0.6360418097199969,0.637994964522774,103400.0,104200.0,102400.0,102000.0,16.86948561668396,0.8976424811169604,-0.033676661326009,-0.003143358510719463,0.8976424811169604,0.157,-0.299,10.56419,16.86948561668396,0.004,0.036,0.135,0.0,0.0,-0.0013837706064805388,0.9999990463256836,-0.0027675421,0.0,0.0,0.0,0.0,0.476,0.0,0.0,0.002,16.866862058639526,3.7100000381469727,False,True,False,True,True,False,False
42,0.42,0.009,0.036,0.202,0.00830262340605259,0.0027675412129610777,-0.0013837706064805388,0.999960720539093,-0.0027215222,0.005557872,0.016597955,-0.017,-0.025,0.552,-0.194,0.005,0.002,16.88407826423645,0.011665242724120617,0.03614253178238869,0.21514929831027985,,,,,,,,0.5814145113298238,0.589593347066453,0.6489204242008088,0.6376287479972533,103100.0,105300.0,104500.0,103400.0,16.87940001487732,0.7119096665903716,-0.0008697642481116961,-0.0036774242771038376,0.7119096665903716,0.185,-0.282,10.55419,16.87940001487732,0.004,0.036,0.145,0.0,0.0,-0.0013837706064805388,0.9999990463256836,-0.0027675421,0.0,0.0,0.0,0.0,0.502,0.0,0.0,0.002,16.885910272598267,3.7049999237060547,False,True,False,True,True,False,False
43,0.43,0.01,0.035,0.211,0.006918853148818016,0.0027675412129610777,-0.0013837706064805388,0.9999712705612183,-0.0027292108,0.0055541005,0.013830303,-0.015,-0.027,0.569,-0.317,0.004,0.022,16.89399266242981,0.012052970007061958,0.035803601145744324,0.22110261023044586,,,,,,,,0.6181887541008622,0.6010376134889753,0.6167238879987793,0.6532845044632639,101400.0,104200.0,104500.0,102700.0,16.888750076293945,0.7119096665903716,-0.0008697642481116961,-0.0036774242771038376,0.7119096665903716,0.151,-0.201,10.50219,16.888750076293945,0.004,0.036,0.15,0.0,0.0,-0.0013837706064805388,0.9999990463256836,-0.0027675421,0.0,0.0,0.0,0.0,0.514,0.0,0.0,0.002,16.89822483062744,3.7049999237060547,False,True,False,True,True,False,False
44,0.44,0.01,0.035,0.216,0.005535082425922155,0.0027675412129610777,-0.0013837706064805388,0.9999799132347107,-0.002736894,0.0055503184,0.011062679,-0.012,-0.028,0.57,-0.342,-0.023,-0.008,16.903342723846436,0.012394778430461884,0.035437699407339096,0.22658219933509827,,,,,,,,0.6233310444800488,0.6286106660563058,0.6129549095902953,0.6231174181734951,100000.0,102700.0,104500.0,103100.0,16.89844822883606,0.4396429388876173,0.006759746700236515,-0.006500343327992676,0.4396429388876173,0.111,-0.111,10.328190000000001,16.89844822883606,0.004,0.036,0.15,0.0,0.0,-0.0013837706064805388,0.9999990463256836,-0.0027675421,0.0,0.0,0.0,0.0,0.514,0.0,0.0,0.002,16.89822483062744,3.7049999237060547,False,True,False,True,True,False,False
45,0.45,0.01,0.035,0.221,0.004151311703026295,0.0027675412129610777,-0.0013837706064805388,0.9999865889549255,-0.002744572,0.005546526,0.008295075,-0.012,-0.028,0.577,-0.268,-0.028,-0.003,16.91304087638855,0.012961095198988914,0.034974902868270874,0.23213806748390198,,,,,,,,0.681025406271458,0.675898374914168,0.6591134508278019,0.6839551384756237,101000.0,102700.0,104500.0,101400.0,16.910762786865234,0.39005111772335394,-0.004074158846417945,-0.0030060273136491952,0.39005111772335394,0.171,-0.103,10.30719,16.910762786865234,0.004,0.036,0.155,0.0,0.0,-0.0013837706064805388,0.9999990463256836,-0.0027675421,0.0,0.0,0.0,0.0,0.526,0.0,0.0,0.002,16.905963897705078,3.7049999237060547,False,True,False,True,True,False,False
46,0.46,0.011,0.035,0.218,0.0013837706064805388,0.004151311703026295,-0.0013837706064805388,0.9999894499778748,-0.0027561218,0.008306461,0.0027561218,0.003,-0.026,0.544,-0.183,-0.045,-0.002,16.925355434417725,0.013702240772545338,0.03425607830286026,0.24381831288337708,,,,,,,,0.610055695429923,0.6439917601281758,0.6662088960097657,0.6412451361867705,103800.0,105300.0,105300.0,105300.0,16.929647207260132,0.22662699320973526,-0.003585870145723659,-0.002639810788128481,0.22662699320973526,0.171,-0.08,10.610190000000001,16.929647207260132,0.004,0.036,0.166,0.0,0.0,-0.0013837706064805388,0.9999990463256836,-0.0027675421,0.0,0.0,0.0,0.0,0.549,0.0,0.0,0.002,16.925994157791138,3.7260000705718994,False,True,False,True,True,False,False
47,0.47000000000000003,0.011,0.035,0.218,0.0013837706064805388,0.004151311703026295,-0.0013837706064805388,0.9999894499778748,-0.0027561218,0.008306461,0.0027561218,0.003,-0.026,0.544,-0.183,-0.045,-0.002,16.925355434417725,0.013702240772545338,0.03425607830286026,0.24381831288337708,,,,,,,,0.610055695429923,0.6439917601281758,0.6662088960097657,0.6412451361867705,103800.0,105300.0,105300.0,105300.0,16.929647207260132,0.22662699320973526,-0.003585870145723659,-0.002639810788128481,0.22662699320973526,0.171,-0.08,10.610190000000001,16.929647207260132,0.004,0.036,0.166,0.0,0.0,-0.0013837706064805388,0.9999990463256836,-0.0027675421,0.0,0.0,0.0,0.0,0.549,0.0,0.0,0.002,16.925994157791138,3.7260000705718994,False,True,False,True,True,False,False
48,0.48,0.012,0.034,0.236,0.0,0.0027675412129610777,-0.0013837706064805388,0.999995231628418,-0.0027675738,0.0055350843,-7.6594015e-06,0.009,-0.028,0.58,-0.171,-0.182,0.012,16.944239854812622,0.014155520126223564,0.03389625996351242,0.24978196620941162,,,,,,,,0.6266117341878386,0.6167238879987793,0.6372320134279392,0.6629892423895628,102000.0,106400.0,105300.0,104500.0,16.93853211402893,0.795223926146334,0.016052491035324634,-0.005447470817120622,0.795223926146334,0.117,-0.116,10.616190000000001,16.93853211402893,0.004,0.036,0.171,0.0,0.0,-0.0013837706064805388,0.9999990463256836,-0.0027675421,0.0,0.0,0.0,0.0,0.559,0.0,0.0,0.002,16.93626070022583,3.7260000705718994,False,True,False,True,True,False,False
49,0.49,0.012,0.033,0.242,-0.0,0.0027675412129610777,-0.0013837706064805388,0.999995231628418,-0.0027675738,0.0055350843,-7.6594015e-06,0.01,-0.027,0.59,-0.204,-0.186,0.002,16.95312476158142,0.014155520126223564,0.03389625996351242,0.24978196620941162,,,,,,,,0.5983825436789502,0.6162661173418784,0.6354619668879224,0.626489662012665,100000.0,106400.0,106400.0,103800.0,16.948798656463623,0.795223926146334,0.016052491035324634,-0.005447470817120622,0.795223926146334,0.088,-0.062,10.693190000000001,16.948798656463623,0.004,0.036,0.177,0.0,0.0,-0.0013837706064805388,0.9999990463256836,-0.0027675421,0.0,0.0,0.0,0.0,0.569,0.0,0.0,0.002,16.948092222213745,3.7260000705718994,False,True,False,True,True,False,False
50,0.5,0.013,0.033,0.251,-0.0013837706064805388,0.0013837706064805388,-0.0013837706064805388,0.9999971389770508,-0.002771377,0.0027637072,-0.002771377,0.011,-0.028,0.605,-0.218,-0.193,0.011,16.963391304016113,0.015039268881082535,0.0330272801220417,0.2618069052696228,,,,,,,,0.6744029907682918,0.6488288700694286,0.6347905699244678,0.6626840619516289,101700.0,105600.0,104900.0,103100.0,16.960630178451538,0.9652399481193256,-0.021316853589684902,-0.0024872205691615166,0.9652399481193256,0.073,-0.002,10.652190000000001,16.960630178451538,0.004,0.036,0.183,0.0,0.0,-0.0013837706064805388,0.9999990463256836,-0.0027675421,0.0,0.0,0.0,0.0,0.579,0.0,0.0,0.002,16.956005096435547,3.684000015258789,False,True,False,True,True,False,False
51,0.51,0.013,0.032,0.249,-0.0027675412129610777,0.0013837706064805388,-0.0013837706064805388,0.9999942779541016,-0.0027751988,0.0027598697,-0.0055389297,0.012,-0.027,0.589,-0.155,-0.142,0.02,16.97522282600403,0.016003014519810677,0.032315872609615326,0.27431702613830566,,,,,,,,0.60170901045243,0.5994506752117189,0.6176089112687877,0.635431448844129,103800.0,105600.0,104900.0,104200.0,16.980007648468018,0.7863431754024567,0.01782253757534142,-0.0039673456931410694,0.7863431754024567,0.093,0.014,10.70419,16.980007648468018,0.004,0.036,0.194,0.0,0.0,-0.0013837706064805388,0.9999990463256836,-0.0027675421,0.0,0.0,0.0,0.0,0.597,0.0,0.0,0.003,16.97703719139099,3.684000015258789,False,True,False,True,True,False,False
52,0.52,0.013,0.032,0.249,-0.0027675412129610777,0.0013837706064805388,-0.0013837706064805388,0.9999942779541016,-0.0027751988,0.0027598697,-0.0055389297,0.012,-0.027,0.589,-0.155,-0.142,0.02,16.97522282600403,0.016003014519810677,0.032315872609615326,0.27431702613830566,,,,,,,,0.60170901045243,0.5994506752117189,0.6176089112687877,0.635431448844129,103800.0,105600.0,104900.0,104200.0,16.980007648468018,0.7863431754024567,0.01782253757534142,-0.0039673456931410694,0.7863431754024567,0.093,0.014,10.70419,16.980007648468018,0.004,0.036,0.194,0.0,0.0,-0.0013837706064805388,0.9999990463256836,-0.0027675421,0.0,0.0,0.0,0.0,0.597,0.0,0.0,0.003,16.97703719139099,3.684000015258789,False,True,False,True,True,False,False
53,0.53,0.014,0.032,0.266,-0.004151311703026295,0.0,-0.0013837706064805388,0.9999904036521912,-0.0027675182,-1.1488926e-05,-0.008302638,0.023,-0.026,0.633,-0.149,-0.157,0.003,16.994600296020508,0.01647099480032921,0.031965844333171844,0.2806409001350403,,,,,,,,0.5841000991836424,0.6165712977798123,0.6223392080567636,0.6064698252841992,102700.0,103800.0,104900.0,104500.0,16.989575147628784,0.7236438544289311,0.03947508964675364,-0.0021362630655374993,0.7227130540932326,0.107,0.048,10.661190000000001,16.989575147628784,0.004,0.036,0.2,0.0,0.0,-0.0013837706064805388,0.9999990463256836,-0.0027675421,0.0,0.0,0.0,0.0,0.605,0.0,0.0,0.003,16.98772883415222,3.684000015258789,False,True,False,True,True,False,False
54,0.54,0.015,0.032,0.272,-0.005535082425922155,-0.0,-0.0013837706064805388,0.9999837279319763,-0.0027674998,-1.5318568e-05,-0.011070211,0.024,-0.025,0.642,-0.143,-0.199,0.002,17.004167795181274,0.01690399833023548,0.03149479627609253,0.2870137691497803,,,,,,,,0.6052338445105668,0.6507972838941024,0.6399938963912413,0.6053559166857404,100700.0,103400.0,103100.0,102000.0,17.000266790390015,0.7236438544289311,0.03947508964675364,-0.0021362630655374993,0.7227130540932326,0.111,0.061,10.520190000000001,17.000266790390015,0.004,0.036,0.206,0.0,0.0,-0.0013837706064805388,0.9999990463256836,-0.0027675421,0.0,0.0,0.0,0.0,0.612,0.0,0.0,0.003,17.006396770477295,3.7209999561309814,False,True,False,True,True,False,False
55,0.55,0.016,0.031,0.274,-0.005535082425922155,-0.0013837706064805388,-0.0013837706064805388,0.9999827742576599,-0.002752189,-0.0027828156,-0.011066413,0.026,-0.024,0.634,-0.114,-0.263,0.009,17.014859437942505,0.017340578138828278,0.031184788793325424,0.29357844591140747,,,,,,,,0.5802243076218815,0.5911192492561227,0.5954833295185779,0.5956359197375448,99000.0,103100.0,103800.0,100700.0,17.018934726715088,0.06918440527962158,0.010040436408026246,-0.0038910505836575876,0.06918440527962158,0.047,0.019,10.171190000000001,17.018934726715088,0.004,0.036,0.212,0.0,0.0,-0.0013837706064805388,0.9999990463256836,-0.0027675421,0.0,0.0,0.0,0.0,0.619,0.0,0.0,0.003,17.017633199691772,3.7209999561309814,False,True,False,True,True,False,False
56,0.56,0.016,0.03,0.287,-0.005535082425922155,-0.0027675412129610777,-0.0013837706064805388,0.9999799132347107,-0.002736894,-0.0055503184,-0.011062679,0.023,-0.026,0.658,-0.097,-0.235,0.008,17.033527374267578,0.018324680626392365,0.030341973528265953,0.306545615196228,,,,,,,,0.5586785687037461,0.5979858091096361,0.609399557488365,0.5805905241474022,100300.0,102000.0,102400.0,100700.0,17.030171155929565,0.48250553139543756,-0.04898146028839551,-0.0015716792553597315,0.48250553139543756,-0.008,0.024,10.11719,17.030171155929565,0.004,0.036,0.225,0.0,0.0,-0.0013837706064805388,0.9999990463256836,-0.0027675421,0.0,0.0,0.0,0.0,0.631,0.0,0.0,0.003,17.028181552886963,3.7209999561309814,False,True,False,True,True,False,False
57,0.5700000000000001,0.016,0.03,0.287,-0.005535082425922155,-0.0027675412129610777,-0.0013837706064805388,0.9999799132347107,-0.002736894,-0.0055503184,-0.011062679,0.023,-0.026,0.658,-0.097,-0.235,0.008,17.033527374267578,0.018324680626392365,0.030341973528265953,0.306545615196228,,,,,,,,0.5586785687037461,0.5979858091096361,0.609399557488365,0.5805905241474022,100300.0,102000.0,102400.0,100700.0,17.030171155929565,0.48250553139543756,-0.04898146028839551,-0.0015716792553597315,0.48250553139543756,-0.008,0.024,10.11719,17.030171155929565,0.004,0.036,0.225,0.0,0.0,-0.0013837706064805388,0.9999990463256836,-0.0027675421,0.0,0.0,0.0,0.0,0.631,0.0,0.0,0.003,17.028181552886963,3.7209999561309814,False,True,False,True,True,False,False
58,0.58,0.016,0.03,0.294,-0.006918853148818016,-0.004151311703026295,-0.0013837706064805388,0.9999665021896362,-0.0027101012,-0.008321589,-0.013826673,0.023,-0.024,0.662,-0.113,-0.242,0.01,17.044763803482056,0.01887580007314682,0.03004085272550583,0.3130044937133789,,,,,,,,0.5809567406729229,0.5687800411993591,0.5887693598840315,0.6140077821011674,97100.0,100300.0,101000.0,99700.0,17.040719509124756,0.1969939726863508,-0.005386434729533837,-0.0027618829633020525,0.1969939726863508,-0.026,0.056,9.741190000000001,17.040719509124756,0.004,0.036,0.243,0.0,0.0,-0.0,1.0,0.0,0.0,0.0,0.0,0.0,0.644,0.0,0.0,0.003,17.055840015411377,3.7309999465942383,False,True,False,True,True,False,False
59,0.59,0.017,0.029,0.306,-0.006918853148818016,-0.005535082425922155,-0.0013837706064805388,0.9999597668647766,-0.0026910056,-0.011089095,-0.013823121,0.033,-0.024,0.661,-0.135,-0.141,0.009,17.055312156677246,0.019202958792448044,0.029678592458367348,0.319662868976593,,,,,,,,0.5575188830395972,0.586480506599527,0.6096437018387122,0.5892271305409323,98700.0,100700.0,100300.0,99700.0,17.05819272994995,0.18738078889143206,-0.03407339589532311,-0.0026245517662317848,0.18738078889143206,-0.064,0.074,9.642190000000001,17.05819272994995,0.004,0.036,0.243,0.0,0.0,-0.0,1.0,0.0,0.0,0.0,0.0,0.0,0.644,0.0,0.0,0.003,17.055840015411377,3.7309999465942383,False,True,False,True,True,False,False
60,0.6,0.018,0.029,0.309,-0.00830262340605259,-0.006918853148818016,-0.0013837706064805388,0.9999406337738037,-0.0026527455,-0.013860307,-0.016587468,0.032,-0.023,0.659,-0.101,-0.182,0.01,17.063570737838745,0.019729625433683395,0.02923540398478508,0.326183021068573,,,,,,,,0.5443350881208514,0.5854428931105516,0.5835507743953613,0.5506828412298772,97400.0,100000.0,99000.0,100000.0,17.06837797164917,0.3300221255817502,0.014175631342030976,-0.003860532539864195,0.3300221255817502,-0.085,0.112,9.60919,17.06837797164917,0.004,0.036,0.25,0.0,0.0,-0.0,1.0,0.0,0.0,0.0,0.0,0.0,0.647,0.0,0.0,0.003,17.068284034729004,3.7309999465942383,False,True,False,True,True,False,False
61,0.61,0.018,0.029,0.317,-0.00830262340605259,-0.006918853148818016,-0.0013837706064805388,0.9999406337738037,-0.0026527455,-0.013860307,-0.016587468,0.032,-0.022,0.664,-0.112,-0.213,0.015,17.07278537750244,0.02006811462342739,0.029023747891187668,0.3326241374015808,,,,,,,,0.5443350881208514,0.5854428931105516,0.5835507743953613,0.5506828412298772,97400.0,100000.0,99000.0,100000.0,17.06837797164917,0.5617456321049821,0.01872281986724651,-0.0032654306858930344,0.5617456321049821,-0.085,0.112,9.60919,17.06837797164917,0.004,0.036,0.256,0.0,0.0,-0.0,1.0,0.0,0.0,0.0,0.0,0.0,0.649,0.0,0.0,0.003,17.07610011100769,3.7309999465942383,False,True,False,True,True,False,False
62,0.62,0.019,0.028,0.328,-0.009686394594609737,-0.00830262340605259,-0.0013837706064805388,0.9999176859855652,-0.002606832,-0.016631454,-0.0193521,0.031,-0.02,0.671,-0.079,-0.229,0.013,17.08297061920166,0.020579691976308823,0.0287990290671587,0.3390204906463623,,,,,,,,0.5510032806897078,0.5695582513160906,0.5713588158999008,0.5633020523384451,95800.0,99300.0,98400.0,97400.0,17.080821990966797,0.6369115739681086,-0.005539024948500801,-0.0033875028610666057,0.6369115739681086,-0.091,0.094,9.49419,17.080821990966797,0.004,0.036,0.263,0.0,0.0,-0.0,1.0,0.0,0.0,0.0,0.0,0.0,0.651,0.0,0.0,0.003,17.087893962860107,3.742000102996826,False,True,False,True,True,False,False
63,0.63,0.019,0.028,0.328,-0.009686394594609737,-0.00830262340605259,-0.0013837706064805388,0.9999176859855652,-0.002606832,-0.016631454,-0.0193521,0.031,-0.02,0.671,-0.079,-0.229,0.013,17.08297061920166,0.020579691976308823,0.0287990290671587,0.3390204906463623,,,,,,,,0.5510032806897078,0.5695582513160906,0.5713588158999008,0.5633020523384451,95800.0,99300.0,98400.0,97400.0,17.080821990966797,0.6369115739681086,-0.005539024948500801,-0.0033875028610666057,0.6369115739681086,-0.091,0.094,9.49419,17.080821990966797,0.004,0.036,0.263,0.0,0.0,-0.0,1.0,0.0,0.0,0.0,0.0,0.0,0.651,0.0,0.0,0.003,17.087893962860107,3.742000102996826,False,True,False,True,True,False,False
64,0.64,0.019,0.028,0.335,-0.009686394594609737,-0.009686394594609737,-0.0013837706064805388,0.9999052286148071,-0.002580115,-0.019398976,-0.019348994,0.029,-0.018,0.669,-0.071,-0.247,0.013,17.095414638519287,0.021226080134510994,0.0282293614000082,0.3517606258392334,,,,,,,,0.5792782482642863,0.5984740978103303,0.6012817578393225,0.589044022278172,95800.0,99000.0,98700.0,98700.0,17.1004319190979,0.8982070649271382,-0.03698786907759213,-0.002059967956054017,0.8982070649271382,-0.17,0.126,9.251190000000001,17.1004319190979,0.004,0.036,0.269,0.0,0.0,-0.0,1.0,0.0,0.0,0.0,0.0,0.0,0.652,0.0,0.0,0.003,17.105167150497437,3.742000102996826,False,True,False,True,True,False,False
65,0.65,0.019,0.028,0.335,-0.009686394594609737,-0.009686394594609737,-0.0013837706064805388,0.9999052286148071,-0.002580115,-0.019398976,-0.019348994,0.029,-0.018,0.669,-0.071,-0.247,0.013,17.095414638519287,0.021226080134510994,0.0282293614000082,0.3517606258392334,,,,,,,,0.5792782482642863,0.5984740978103303,0.6012817578393225,0.589044022278172,95800.0,99000.0,98700.0,98700.0,17.1004319190979,0.8982070649271382,-0.03698786907759213,-0.002059967956054017,0.8982070649271382,-0.17,0.126,9.251190000000001,17.1004319190979,0.004,0.036,0.269,0.0,0.0,-0.0,1.0,0.0,0.0,0.0,0.0,0.0,0.652,0.0,0.0,0.003,17.105167150497437,3.742000102996826,False,True,False,True,True,False,False
66,0.66,0.02,0.028,0.342,-0.009686394594609737,-0.01107016485184431,-0.0013837706064805388,0.9998908638954163,-0.0025534092,-0.022166537,-0.019345997,0.027,-0.016,0.641,-0.052,-0.193,0.014,17.11502456665039,0.02222670242190361,0.02778642438352108,0.3645131587982178,,,,,,,,0.5914244296940566,0.585778591592279,0.5954528114747845,0.5953612573434043,96200.0,99300.0,99000.0,96500.0,17.11770510673523,0.7576867322804608,-0.011551079575799192,-0.002380407415884642,0.7576867322804608,-0.169,0.112,9.33619,17.11770510673523,0.004,0.036,0.288,0.0,0.0,-0.0,1.0,0.0,0.0,0.0,0.0,0.0,0.651,0.0,0.0,0.003,17.12600874900818,3.746999979019165,False,True,False,True,True,False,False
67,0.67,0.02,0.027,0.349,-0.01107016485184431,-0.012453935109078884,-0.0013837706064805388,0.9998602271080017,-0.0024921976,-0.02493761,-0.022111446,0.024,-0.013,0.635,-0.038,-0.14,0.029,17.13229775428772,0.022136865183711052,0.02761542983353138,0.37061041593551636,,,,,,,,0.5557488364995804,0.557579919127184,0.5528191042954147,0.5548332951857786,95200.0,98000.0,97400.0,97400.0,17.129684448242188,0.5558403906309606,-0.015716792553597314,-0.0017395284962233922,0.5558403906309606,-0.236,0.122,9.30119,17.129684448242188,0.004,0.036,0.295,0.0,0.0,-0.0,1.0,0.0,0.0,0.0,0.0,0.0,0.65,0.0,0.0,0.003,17.145206928253174,3.746999979019165,False,True,False,True,True,False,False
68,0.68,0.021,0.027,0.368,-0.01107016485184431,-0.013837706297636032,-0.0013837706064805388,0.9998419880867004,-0.0024616797,-0.02770522,-0.022108821,0.019,-0.006,0.646,-0.024,-0.077,0.023,17.144277095794678,0.022445635870099068,0.027404995635151863,0.3767392039299011,,,,,,,,0.5557488364995804,0.557579919127184,0.5528191042954147,0.5548332951857786,95200.0,98000.0,97400.0,97400.0,17.129684448242188,0.5541008621347372,0.0027924010070954452,0.0014343480582894638,0.5541008621347372,-0.236,0.122,9.30119,17.129684448242188,0.004,0.036,0.301,0.0,0.0,-0.0,1.0,0.0,0.0,0.0,0.0,0.0,0.647,0.0,0.0,0.003,17.15666151046753,3.746999979019165,False,True,False,True,True,False,False
69,0.6900000000000001,0.021,0.027,0.366,-0.01107016485184431,-0.013837706297636032,-0.0013837706064805388,0.9998419880867004,-0.0024616797,-0.02770522,-0.022108821,0.017,-0.005,0.608,0.007,-0.097,0.014,17.153139352798462,0.02281491458415985,0.027196692302823067,0.3828171491622925,,,,,,,,0.5872129396505684,0.5697261005569543,0.568535896849012,0.6029907682917525,96200.0,98700.0,99000.0,96200.0,17.157744884490967,0.5541008621347372,0.0027924010070954452,0.0014343480582894638,0.5541008621347372,-0.182,0.113,9.16219,17.157744884490967,0.004,0.036,0.308,0.0,0.0,-0.0,1.0,0.0,0.0,0.0,0.0,0.0,0.644,0.0,0.0,0.003,17.163284301757812,3.746999979019165,False,True,False,True,True,False,False
70,0.7000000000000001,0.021,0.027,0.366,-0.01107016485184431,-0.013837706297636032,-0.0013837706064805388,0.9998419880867004,-0.0024616797,-0.02770522,-0.022108821,0.017,-0.005,0.608,0.007,-0.097,0.014,17.153139352798462,0.02281491458415985,0.027196692302823067,0.3828171491622925,,,,,,,,0.5872129396505684,0.5697261005569543,0.568535896849012,0.6029907682917525,96200.0,98700.0,99000.0,96200.0,17.157744884490967,0.5541008621347372,0.0027924010070954452,0.0014343480582894638,0.5541008621347372,-0.182,0.113,9.16219,17.157744884490967,0.004,0.036,0.308,0.0,0.0,-0.0,1.0,0.0,0.0,0.0,0.0,0.0,0.644,0.0,0.0,0.003,17.163284301757812,3.746999979019165,False,True,False,True,True,False,False
71,0.71,0.022,0.027,0.375,-0.01107016485184431,-0.015221476554870605,-0.0013837706064805388,0.9998219013214111,-0.002431171,-0.030472882,-0.022106323,0.013,-0.002,0.617,0.002,-0.045,-0.002,17.172337532043457,0.023204997181892395,0.026846112683415413,0.39483100175857544,,,,,,,,0.5788662546730755,0.5890287632562753,0.5748989089799343,0.5709620813305867,94900.0,98000.0,99000.0,96200.0,17.169199466705322,0.13748378728923477,-0.013214312962539101,0.0016784924086366065,0.13748378728923477,-0.181,0.126,9.22619,17.169199466705322,0.004,0.036,0.326,0.0,0.0,-0.0,1.0,0.0,0.0,0.0,0.0,0.0,0.631,0.0,0.0,0.003,17.19093418121338,3.742000102996826,False,True,False,True,True,False,False
72,0.72,0.022,0.026,0.381,-0.01107016485184431,-0.015221476554870605,-0.0013837706064805388,0.9998219013214111,-0.002431171,-0.030472882,-0.022106323,0.003,-0.003,0.612,0.02,-0.036,0.004,17.183792114257812,0.023348838090896606,0.02670418657362461,0.40078020095825195,,,,,,,,0.5966124971389334,0.6144350347142749,0.6108949416342413,0.6086976424811169,95200.0,97100.0,97400.0,95800.0,17.178648471832275,0.32138551918822006,-0.00012207217517357137,-0.000503547722590982,0.32138551918822006,-0.188,0.122,9.11919,17.178648471832275,0.004,0.036,0.326,0.0,0.0,-0.0,1.0,0.0,0.0,0.0,0.0,0.0,0.631,0.0,0.0,0.003,17.19093418121338,3.742000102996826,False,True,False,True,True,False,False
73,0.73,0.022,0.026,0.381,-0.01107016485184431,-0.015221476554870605,-0.0013837706064805388,0.9998219013214111,-0.002431171,-0.030472882,-0.022106323,0.003,-0.003,0.612,0.02,-0.036,0.004,17.183792114257812,0.023348838090896606,0.02670418657362461,0.40078020095825195,,,,,,,,0.5966124971389334,0.6144350347142749,0.6108949416342413,0.6086976424811169,95200.0,97100.0,97400.0,95800.0,17.178648471832275,0.32138551918822006,-0.00012207217517357137,-0.000503547722590982,0.32138551918822006,-0.188,0.122,9.11919,17.178648471832275,0.004,0.036,0.326,0.0,0.0,-0.0,1.0,0.0,0.0,0.0,0.0,0.0,0.631,0.0,0.0,0.003,17.19093418121338,3.742000102996826,False,True,False,True,True,False,False
74,0.74,0.022,0.026,0.393,-0.009686394594609737,-0.015221476554870605,-0.0013837706064805388,0.999836266040802,-0.0024733562,-0.03046949,-0.019337673,0.006,-0.011,0.571,0.03,0.019,0.023,17.20371699333191,0.02361200749874115,0.026483839377760887,0.41242867708206177,,,,,,,,0.5685206378271153,0.5349507896543831,0.5530785076676585,0.588540474555581,95800.0,98000.0,98000.0,95200.0,17.203472137451172,0.07959105821316853,-0.007049668116273747,-0.0015564202334630351,0.07959105821316853,-0.21,0.106,9.26919,17.203472137451172,0.004,0.036,0.339,0.0,0.0,-0.0,1.0,0.0,0.0,0.0,0.0,0.0,0.619,0.0,0.0,0.003,17.2098126411438,3.736999988555908,False,True,False,True,True,False,False
75,0.75,0.022,0.025,0.407,-0.009686394594609737,-0.015221476554870605,-0.0013837706064805388,0.999836266040802,-0.0024733562,-0.03046949,-0.019337673,0.004,-0.009,0.59,-0.021,0.055,0.013,17.218064785003662,0.023893659934401512,0.026321526616811752,0.42399293184280396,,,,,,,,0.5375600823987182,0.5508049134050508,0.5826962691691463,0.5718928816662852,96200.0,97400.0,94900.0,97100.0,17.219250679016113,0.9797665369649805,0.010284580758373388,0.0010376134889753567,0.9797665369649805,-0.174,0.036,9.26819,17.219250679016113,0.004,0.036,0.357,0.0,0.0,-0.0,1.0,0.0,0.0,0.0,0.0,0.0,0.597,0.0,0.0,0.003,17.235758304595947,3.736999988555908,False,True,False,True,True,False,False
76,0.76,0.022,0.025,0.407,-0.009686394594609737,-0.015221476554870605,-0.0013837706064805388,0.999836266040802,-0.0024733562,-0.03046949,-0.019337673,0.004,-0.009,0.59,-0.021,0.055,0.013,17.218064785003662,0.023893659934401512,0.026321526616811752,0.42399293184280396,,,,,,,,0.5375600823987182,0.5508049134050508,0.5826962691691463,0.5718928816662852,96200.0,97400.0,94900.0,97100.0,17.219250679016113,0.9797665369649805,0.010284580758373388,0.0010376134889753567,0.9797665369649805,-0.174,0.036,9.26819,17.219250679016113,0.004,0.036,0.357,0.0,0.0,-0.0,1.0,0.0,0.0,0.0,0.0,0.0,0.597,0.0,0.0,0.003,17.235758304595947,3.736999988555908,False,True,False,True,True,False,False
77,0.77,0.023,0.025,0.412,-0.009686394594609737,-0.015221476554870605,-0.0013837706064805388,0.999836266040802,-0.0024733562,-0.03046949,-0.019337673,0.001,-0.008,0.581,-0.059,0.035,0.004,17.233843326568604,0.023829467594623566,0.026345962658524513,0.4293906092643738,,,,,,,,0.5810177767605097,0.5895323109788663,0.5902952620737011,0.5909971770809491,94000.0,96500.0,96800.0,95500.0,17.231112957000732,0.9797665369649805,0.010284580758373388,0.0010376134889753567,0.9797665369649805,-0.16,0.081,8.988190000000001,17.231112957000732,0.004,0.036,0.363,0.0,0.0,-0.0,1.0,0.0,0.0,0.0,0.0,0.0,0.588,0.0,0.0,0.003,17.246471405029297,3.736999988555908,False,True,False,True,True,False,False
78,0.78,0.022,0.025,0.415,-0.01107016485184431,-0.013837706297636032,-0.0013837706064805388,0.9998419880867004,-0.0024616797,-0.02770522,-0.022108821,-0.003,-0.004,0.55,-0.057,-0.05,-0.001,17.245705604553223,0.023907329887151718,0.02629782073199749,0.43501460552215576,,,,,,,,0.5486076142519265,0.5213244831006333,0.5470206759746701,0.5705806057831693,93200.0,96500.0,96500.0,94000.0,17.24829626083374,0.681727321278706,0.05000381475547418,-0.00012207217517357137,0.681727321278706,-0.243,0.104,8.97719,17.24829626083374,0.004,0.036,0.363,0.0,0.0,-0.0,1.0,0.0,0.0,0.0,0.0,0.0,0.588,0.0,0.0,0.003,17.246471405029297,3.7209999561309814,False,True,False,True,True,False,False
79,0.79,0.022,0.025,0.427,-0.01107016485184431,-0.015221476554870605,-0.0013837706064805388,0.9998219013214111,-0.002431171,-0.030472882,-0.022106323,-0.006,-0.002,0.565,-0.031,-0.022,-0.004,17.25362753868103,0.02393239736557007,0.02618248201906681,0.4405059218406677,,,,,,,,0.5486076142519265,0.5213244831006333,0.5470206759746701,0.5705806057831693,93200.0,96500.0,96500.0,94000.0,17.24829626083374,0.565468833447776,-0.026123445487144275,-0.0013580529488059815,0.565468833447776,-0.243,0.104,8.97719,17.24829626083374,0.004,0.036,0.369,0.0,0.0,-0.0,1.0,0.0,0.0,0.0,0.0,0.0,0.579,0.0,0.0,0.002,17.25887942314148,3.7209999561309814,False,True,False,True,True,False,False
80,0.8,0.022,0.025,0.434,-0.01107016485184431,-0.015221476554870605,-0.0013837706064805388,0.9998219013214111,-0.002431171,-0.030472882,-0.022106323,-0.007,0.0,0.56,-0.002,0.055,0.011,17.26288890838623,0.023758169263601303,0.02619991824030876,0.4458191394805908,,,,,,,,0.5590447852292668,0.5309681849393454,0.5129625391012436,0.5472648203250172,93200.0,95200.0,95200.0,93500.0,17.25900936126709,0.5193255512321661,-0.00392156862745098,-0.0023041123064011597,0.5193255512321661,-0.186,0.116,8.892190000000001,17.25900936126709,0.004,0.036,0.374,0.0,0.0,-0.0,1.0,0.0,0.0,0.0,0.0,0.0,0.57,0.0,0.0,0.002,17.269477367401123,3.7209999561309814,False,True,False,True,True,False,False
81,0.81,0.022,0.025,0.439,-0.01107016485184431,-0.013837706297636032,-0.0013837706064805388,0.9998419880867004,-0.0024616797,-0.02770522,-0.022108821,-0.01,0.001,0.552,0.018,0.083,0.002,17.27360200881958,0.023782122880220413,0.026146939024329185,0.45107507705688477,,,,,,,,0.5662928206301976,0.5860074769207294,0.6084687571526665,0.5832608529793241,91700.0,95200.0,94600.0,94300.0,17.271417379379272,0.23361562523842222,0.014465552758068208,-0.002426184481574731,0.23361562523842222,-0.127,0.077,8.690190000000001,17.271417379379272,0.004,0.036,0.374,0.0,0.0,-0.0,1.0,0.0,0.0,0.0,0.0,0.0,0.57,0.0,0.0,0.002,17.269477367401123,3.7209999561309814,False,True,False,True,True,False,False
82,0.8200000000000001,0.022,0.026,0.436,-0.01107016485184431,-0.013837706297636032,-0.0,0.9998430013656616,0.00030648874,-0.027674599,-0.022147143,-0.012,0.003,0.505,0.026,0.064,0.017,17.286010026931763,0.02362946979701519,0.026125410571694374,0.4613492488861084,,,,,,,,0.5395895323109788,0.55722896162356,0.5813687342641337,0.5626306553749905,93800.0,95200.0,95200.0,94000.0,17.282015323638916,0.6162966353856718,0.031204699778744183,-0.0015564202334630351,0.6162966353856718,-0.144,0.101,8.74419,17.282015323638916,0.004,0.036,0.391,0.0,0.0,-0.0,1.0,0.0,0.0,0.0,0.0,0.0,0.538,0.0,0.0,0.002,17.29561972618103,3.746999979019165,False,True,False,True,True,False,False
83,0.8300000000000001,0.022,0.026,0.436,-0.01107016485184431,-0.013837706297636032,-0.0,0.9998430013656616,0.00030648874,-0.027674599,-0.022147143,-0.012,0.003,0.505,0.026,0.064,0.017,17.286010026931763,0.02362946979701519,0.026125410571694374,0.4613492488861084,,,,,,,,0.5395895323109788,0.55722896162356,0.5813687342641337,0.5626306553749905,93800.0,95200.0,95200.0,94000.0,17.282015323638916,0.6162966353856718,0.031204699778744183,-0.0015564202334630351,0.6162966353856718,-0.144,0.101,8.74419,17.282015323638916,0.004,0.036,0.391,0.0,0.0,-0.0,1.0,0.0,0.0,0.0,0.0,0.0,0.538,0.0,0.0,0.002,17.29561972618103,3.746999979019165,False,True,False,True,True,False,False
84,0.84,0.022,0.026,0.445,-0.01107016485184431,-0.013837706297636032,-0.0,0.9998430013656616,0.00030648874,-0.027674599,-0.022147143,-0.014,0.005,0.511,0.039,0.051,0.001,17.296607971191406,0.02343962900340557,0.026142925024032593,0.466310977935791,,,,,,,,0.5717860685130083,0.5434653238727397,0.5409628442816815,0.5744106202792401,93500.0,94600.0,96200.0,93500.0,17.29997205734253,0.01617456321049821,-0.022461280231937133,0.001373311970702678,0.01617456321049821,-0.189,0.092,8.80619,17.29997205734253,0.004,0.036,0.396,0.0,0.0,-0.0,1.0,0.0,0.0,0.0,0.0,0.0,0.526,0.0,0.0,0.002,17.30744481086731,3.746999979019165,False,True,False,True,True,False,False
85,0.85,0.022,0.026,0.453,-0.01107016485184431,-0.013837706297636032,-0.0,0.9998430013656616,0.00030648874,-0.027674599,-0.022147143,-0.011,0.006,0.516,0.063,0.084,0.007,17.31456470489502,0.02338288724422455,0.026231249794363976,0.4712255597114563,,,,,,,,0.48374151216906996,0.49408712901503016,0.5153276874952315,0.5145037003128099,92600.0,93500.0,93500.0,91500.0,17.308157682418823,0.4077515831235218,-0.01629663538567178,-0.003143358510719463,0.4077515831235218,-0.096,0.006,8.655190000000001,17.308157682418823,0.004,0.036,0.406,0.0,0.0,-0.0,1.0,0.0,0.0,0.0,0.0,0.0,0.502,0.0,0.0,0.002,17.326857328414917,3.746999979019165,False,True,False,True,True,False,False
86,0.86,0.022,0.026,0.469,-0.009686394594609737,-0.012453935109078884,-0.0,0.999875545501709,0.00024134232,-0.024907347,-0.019377602,-0.016,0.01,0.514,0.038,0.06,-0.01,17.322750329971313,0.02317958138883114,0.026319704949855804,0.47608625888824463,,,,,,,,0.4968032349126421,0.5255512321660182,0.5269550621805142,0.4908216983291371,90900.0,92300.0,93500.0,90900.0,17.329882383346558,0.7082932784008545,0.0243076218814374,0.001266498817425803,0.7082932784008545,-0.117,0.021,8.38819,17.329882383346558,0.004,0.036,0.406,0.0,0.0,-0.0,1.0,0.0,0.0,0.0,0.0,0.0,0.502,0.0,0.0,0.002,17.326857328414917,3.742000102996826,False,True,False,True,True,False,False
87,0.87,0.022,0.026,0.468,-0.009686394594609737,-0.012453935109078884,-0.0,0.999875545501709,0.00024134232,-0.024907347,-0.019377602,-0.017,0.012,0.483,0.03,0.027,0.017,17.334575414657593,0.023003116250038147,0.02635146491229534,0.4806687831878662,,,,,,,,0.4968032349126421,0.5255512321660182,0.5269550621805142,0.4908216983291371,90900.0,92300.0,93500.0,90900.0,17.329882383346558,0.7082932784008545,0.0243076218814374,0.001266498817425803,0.7082932784008545,-0.117,0.021,8.38819,17.329882383346558,0.004,0.036,0.411,0.0,0.0,-0.0,1.0,0.0,0.0,0.0,0.0,0.0,0.489,0.0,0.0,0.002,17.33886432647705,3.742000102996826,False,True,False,True,True,False,False
88,0.88,0.022,0.026,0.477,-0.009686394594609737,-0.012453935109078884,-0.0,0.999875545501709,0.00024134232,-0.024907347,-0.019377602,-0.018,0.013,0.481,0.058,0.009,0.009,17.344475030899048,0.02266162633895874,0.026433372870087624,0.48952752351760864,,,,,,,,0.502235446707866,0.49228656443122,0.5120317387655451,0.5153887235828183,90100.0,90900.0,92900.0,90100.0,17.351402282714844,0.7621271076523994,-0.01454184786755169,0.001373311970702678,0.7621271076523994,-0.148,0.061,8.270190000000001,17.351402282714844,0.004,0.036,0.42,0.0,0.0,-0.0,1.0,0.0,0.0,0.0,0.0,0.0,0.463,0.0,0.0,0.002,17.356548070907593,3.742000102996826,False,True,False,True,True,False,False
89,0.89,0.022,0.026,0.477,-0.009686394594609737,-0.012453935109078884,-0.0,0.999875545501709,0.00024134232,-0.024907347,-0.019377602,-0.018,0.013,0.481,0.058,0.009,0.009,17.344475030899048,0.02266162633895874,0.026433372870087624,0.48952752351760864,,,,,,,,0.502235446707866,0.49228656443122,0.5120317387655451,0.5153887235828183,90100.0,90900.0,92900.0,90100.0,17.351402282714844,0.7621271076523994,-0.01454184786755169,0.001373311970702678,0.7621271076523994,-0.148,0.061,8.270190000000001,17.351402282714844,0.004,0.036,0.42,0.0,0.0,-0.0,1.0,0.0,0.0,0.0,0.0,0.0,0.463,0.0,0.0,0.002,17.356548070907593,3.742000102996826,False,True,False,True,True,False,False
90,0.9,0.022,0.026,0.487,-0.009686394594609737,-0.01107016485184431,-0.0,0.9998918175697327,0.00021451255,-0.022139743,-0.019376654,-0.022,0.016,0.453,0.069,0.035,0.011,17.365994930267334,0.022194791585206985,0.026689885184168816,0.49774330854415894,,,,,,,,0.5564660105287251,0.5468528267338063,0.5521629663538568,0.5476157778286412,89300.0,92300.0,92000.0,90100.0,17.369086027145386,0.5659418631265736,-0.030563820859082932,-0.0008087281605249104,0.5659418631265736,-0.083,0.06,8.15119,17.369086027145386,0.004,0.036,0.429,0.0,0.0,-0.0,1.0,0.0,0.0,0.0,0.0,0.0,0.435,0.0,0.0,0.002,17.37712287902832,3.763000011444092,False,True,False,True,True,False,False
91,0.91,0.022,0.026,0.487,-0.009686394594609737,-0.01107016485184431,-0.0,0.9998918175697327,0.00021451255,-0.022139743,-0.019376654,-0.022,0.016,0.453,0.069,0.035,0.011,17.365994930267334,0.022194791585206985,0.026689885184168816,0.49774330854415894,,,,,,,,0.5564660105287251,0.5468528267338063,0.5521629663538568,0.5476157778286412,89300.0,92300.0,92000.0,90100.0,17.369086027145386,0.5659418631265736,-0.030563820859082932,-0.0008087281605249104,0.5659418631265736,-0.083,0.06,8.15119,17.369086027145386,0.004,0.036,0.429,0.0,0.0,-0.0,1.0,0.0,0.0,0.0,0.0,0.0,0.435,0.0,0.0,0.002,17.37712287902832,3.763000011444092,False,True,False,True,True,False,False
92,0.92,0.021,0.026,0.489,-0.00830262340605259,-0.01107016485184431,-0.0,0.9999042749404907,0.00018386789,-0.022140019,-0.016608492,-0.025,0.018,0.386,0.094,0.062,0.022,17.383678674697876,0.021864725276827812,0.02669723704457283,0.5014984011650085,,,,,,,,0.547829404135195,0.5405966277561608,0.5350423437857633,0.5452048523689631,90400.0,91700.0,92600.0,90600.0,17.37913155555725,0.17289997711146715,-0.017471580071717403,0.0013427939269092851,0.17289997711146715,-0.07,0.063,8.225190000000001,17.37913155555725,0.004,0.036,0.433,0.0,0.0,-0.0,1.0,0.0,0.0,0.0,0.0,0.0,0.421,0.0,0.0,0.002,17.38638997077942,3.763000011444092,False,True,False,True,True,False,False
93,0.93,0.021,0.026,0.496,-0.00830262340605259,-0.01107016485184431,-0.0,0.9999042749404907,0.00018386789,-0.022140019,-0.016608492,-0.025,0.018,0.381,0.096,0.107,0.003,17.39372420310974,0.02169235423207283,0.02692090906202793,0.5051707625389099,,,,,,,,0.5150377660791943,0.519127183947509,0.5378347447928588,0.5371023117418173,90900.0,92000.0,91700.0,90900.0,17.389660835266113,0.8686350804913405,-0.01297016861219196,0.0015716792553597315,0.8686350804913405,-0.058,0.003,8.29219,17.389660835266113,0.004,0.036,0.438,0.0,0.0,-0.0,1.0,0.0,0.0,0.0,0.0,0.0,0.407,0.0,0.0,0.002,17.396310567855835,3.763000011444092,False,True,False,True,True,False,False
94,0.9400000000000001,0.021,0.026,0.502,-0.006918853148818016,-0.009686394594609737,-0.0,0.9999291300773621,0.00013406265,-0.019372629,-0.0138397645,-0.028,0.019,0.371,0.064,0.119,0.007,17.404253482818604,0.021119842305779457,0.027015745639801025,0.508617639541626,,,,,,,,0.5191119249256123,0.521187151903563,0.5404745555809872,0.5310139620050355,90600.0,90900.0,92000.0,90100.0,17.398927927017212,0.9971618219272145,0.002532997634851606,0.00354009308003357,0.9971618219272145,-0.042,0.05,8.21519,17.398927927017212,0.004,0.036,0.441,0.0,0.0,-0.0,1.0,0.0,0.0,0.0,0.0,0.0,0.393,0.0,0.0,0.002,17.410145044326782,3.742000102996826,False,True,False,True,True,False,False
95,0.9500000000000001,0.02,0.026,0.506,-0.006918853148818016,-0.009686394594609737,-0.0,0.9999291300773621,0.00013406265,-0.019372629,-0.0138397645,-0.029,0.02,0.356,0.055,0.103,0.009,17.413520574569702,0.02114643156528473,0.027288665995001793,0.5118842720985413,,,,,,,,0.5658197909514,0.556725413900969,0.5765011062790875,0.5890745403219654,89600.0,92000.0,92300.0,90400.0,17.408848524093628,0.7960479133287556,0.008712901503013657,-0.0007324330510414282,0.7960479133287556,-0.011,0.024,8.25019,17.408848524093628,0.004,0.036,0.445,0.0,0.0,-0.0,1.0,0.0,0.0,0.0,0.0,0.0,0.378,0.0,0.0,0.001,17.41830062866211,3.742000102996826,False,True,False,True,True,False,False
96,0.96,0.02,0.026,0.5,-0.006918853148818016,-0.009686394594609737,-0.0,0.9999291300773621,0.00013406265,-0.019372629,-0.0138397645,-0.031,0.02,0.314,0.044,0.119,0.0,17.423441171646118,0.020788226276636124,0.027368785813450813,0.5153284072875977,,,,,,,,0.5291218432898451,0.5325093461509117,0.578286411841001,0.560189211871519,90100.0,92600.0,93800.0,90600.0,17.422683000564575,0.7960479133287556,0.008712901503013657,-0.0007324330510414282,0.7960479133287556,-0.027,0.013,8.33919,17.422683000564575,0.004,0.036,0.449,0.0,0.0,-0.0,1.0,0.0,0.0,0.0,0.0,0.0,0.363,0.0,0.0,0.001,17.429519414901733,3.742000102996826,False,True,False,True,True,False,False
97,0.97,0.02,0.026,0.507,-0.006918853148818016,-0.00830262340605259,-0.0,0.9999415874481201,0.0001149051,-0.016605038,-0.013839248,-0.032,0.022,0.316,0.044,0.093,0.015,17.437275648117065,0.02002873830497265,0.02780338004231453,0.5211523175239563,,,,,,,,0.5251850156404975,0.5222247653925384,0.5202716105897612,0.523598077363241,90600.0,92300.0,93500.0,90900.0,17.442057371139526,0.4380102235446708,-0.0023956664377813384,0.0007324330510414282,0.4380102235446708,-0.024,-0.045,8.41319,17.442057371139526,0.004,0.036,0.456,0.0,0.0,-0.0,1.0,0.0,0.0,0.0,0.0,0.0,0.334,0.0,0.0,0.001,17.447977781295776,3.757999897003174,False,True,False,True,True,False,False
98,0.98,0.02,0.026,0.507,-0.006918853148818016,-0.00830262340605259,-0.0,0.9999415874481201,0.0001149051,-0.016605038,-0.013839248,-0.032,0.022,0.316,0.044,0.093,0.015,17.437275648117065,0.02002873830497265,0.02780338004231453,0.5211523175239563,,,,,,,,0.5251850156404975,0.5222247653925384,0.5202716105897612,0.523598077363241,90600.0,92300.0,93500.0,90900.0,17.442057371139526,0.4380102235446708,-0.0023956664377813384,0.0007324330510414282,0.4380102235446708,-0.024,-0.045,8.41319,17.442057371139526,0.004,0.036,0.456,0.0,0.0,-0.0,1.0,0.0,0.0,0.0,0.0,0.0,0.334,0.0,0.0,0.001,17.447977781295776,3.757999897003174,False,True,False,True,True,False,False
99,0.99,0.019,0.027,0.519,-0.005535082425922155,-0.006918853148818016,-0.0,0.999960720539093,7.6600176e-05,-0.013837604,-0.011071016,-0.034,0.024,0.307,0.072,0.114,0.004,17.456650018692017,0.019732389599084854,0.028096657246351242,0.5240682363510132,,,,,,,,0.6012664988174258,0.5818875410086214,0.568886854352636,0.5916227969787137,90900.0,92900.0,92600.0,91700.0,17.45640468597412,0.4380102235446708,-0.0023956664377813384,0.0007324330510414282,0.4380102235446708,-0.015,-0.003,8.392190000000001,17.45640468597412,0.004,0.036,0.456,0.0,0.0,-0.0,1.0,0.0,0.0,0.0,0.0,0.0,0.334,0.0,0.0,0.001,17.447977781295776,3.757999897003174,False,True,False,True,True,False,False
100,1.0,0.019,0.027,0.513,-0.005535082425922155,-0.006918853148818016,-0.0,0.999960720539093,7.6600176e-05,-0.013837604,-0.011071016,-0.036,0.025,0.243,0.105,0.106,-0.004,17.47099733352661,0.019336935132741928,0.028147222474217415,0.5266392230987549,,,,,,,,0.5330739299610895,0.5469901579308767,0.5521171892881667,0.5469291218432899,91700.0,92600.0,91700.0,90100.0,17.469507694244385,0.27016098268101013,0.03381399252307927,-0.0023041123064011597,0.27016098268101013,-0.001,-0.099,8.49719,17.469507694244385,0.004,0.036,0.462,0.0,0.0,-0.0,1.0,0.0,0.0,0.0,0.0,0.0,0.304,0.0,0.0,0.001,17.468926191329956,3.757999897003174,False,True,False,True,True,False,False
101,1.01,0.019,0.027,0.513,-0.005535082425922155,-0.006918853148818016,-0.0,0.999960720539093,7.6600176e-05,-0.013837604,-0.011071016,-0.036,0.025,0.243,0.105,0.106,-0.004,17.47099733352661,0.019336935132741928,0.028147222474217415,0.5266392230987549,,,,,,,,0.5330739299610895,0.5469901579308767,0.5521171892881667,0.5469291218432899,91700.0,92600.0,91700.0,90100.0,17.469507694244385,0.27016098268101013,0.03381399252307927,-0.0023041123064011597,0.27016098268101013,-0.001,-0.099,8.49719,17.469507694244385,0.004,0.036,0.462,0.0,0.0,-0.0,1.0,0.0,0.0,0.0,0.0,0.0,0.304,0.0,0.0,0.001,17.468926191329956,3.757999897003174,False,True,False,True,True,False,False
102,1.02,0.018,0.028,0.525,-0.004151311703026295,-0.005535082425922155,-0.0,0.9999760389328003,4.595852e-05,-0.011070126,-0.0083030285,-0.037,0.025,0.245,0.123,0.09,-0.008,17.484100341796875,0.018568696454167366,0.028495490550994873,0.5316036939620972,,,,,,,,0.5305561913481346,0.5557335774776837,0.5535973144121462,0.5373311970702678,90900.0,92900.0,91500.0,90600.0,17.48146414756775,0.8363317311360342,0.006881818875410086,0.0018616006713969636,0.8363317311360342,0.0,-0.04,8.539190000000001,17.48146414756775,0.004,0.036,0.468,0.0,0.0,-0.0,1.0,0.0,0.0,0.0,0.0,0.0,0.275,0.0,0.0,0.001,17.489116430282593,3.753000020980835,False,True,False,True,True,False,False
103,1.03,0.018,0.028,0.528,-0.004151311703026295,-0.005535082425922155,-0.0,0.9999760389328003,4.595852e-05,-0.011070126,-0.0083030285,-0.036,0.025,0.233,0.105,0.082,-0.008,17.49605679512024,0.01851840317249298,0.028748447075486183,0.5340780019760132,,,,,,,,0.5445639734493019,0.5487144274052034,0.5760891126878767,0.5641870756084535,90400.0,92900.0,92900.0,91700.0,17.501654386520386,0.4628519111924926,-0.00955214770733196,-0.0021820401312275884,0.4628519111924926,0.05,-0.073,8.469190000000001,17.501654386520386,0.004,0.036,0.473,0.0,0.0,-0.0,1.0,0.0,0.0,0.0,0.0,0.0,0.246,0.0,0.0,0.001,17.509253978729248,3.753000020980835,False,True,False,True,True,False,False
104,1.04,0.018,0.028,0.528,-0.004151311703026295,-0.005535082425922155,-0.0,0.9999760389328003,4.595852e-05,-0.011070126,-0.0083030285,-0.036,0.025,0.233,0.105,0.082,-0.008,17.49605679512024,0.01851840317249298,0.028748447075486183,0.5340780019760132,,,,,,,,0.5445639734493019,0.5487144274052034,0.5760891126878767,0.5641870756084535,90400.0,92900.0,92900.0,91700.0,17.501654386520386,0.4628519111924926,-0.00955214770733196,-0.0021820401312275884,0.4628519111924926,0.05,-0.073,8.469190000000001,17.501654386520386,0.004,0.036,0.473,0.0,0.0,-0.0,1.0,0.0,0.0,0.0,0.0,0.0,0.246,0.0,0.0,0.001,17.509253978729248,3.753000020980835,False,True,False,True,True,False,False
105,1.05,0.017,0.028,0.53,-0.0027675412129610777,-0.004151311703026295,0.0,0.9999875426292419,2.2978644e-05,-0.008302615,-0.0055352324,-0.036,0.028,0.198,0.042,0.09,0.003,17.516247034072876,0.016963103786110878,0.029367340728640556,0.5401340126991272,,,,,,,,0.552300297550927,0.5522697795071336,0.5772640573739223,0.5642938887617304,91200.0,92900.0,93500.0,92900.0,17.52179193496704,0.3370565346761273,-0.006469825284199283,-0.0007171740291447319,0.3370565346761273,0.025,-0.048,8.63819,17.52179193496704,0.004,0.036,0.478,0.0,0.0,-0.0,1.0,0.0,0.0,0.0,0.0,0.0,0.218,0.0,0.0,0.001,17.52682638168335,3.746999979019165,False,True,False,True,True,False,False
106,1.06,0.017,0.028,0.53,-0.0027675412129610777,-0.004151311703026295,0.0,0.9999875426292419,2.2978644e-05,-0.008302615,-0.0055352324,-0.036,0.028,0.198,0.042,0.09,0.003,17.516247034072876,0.016963103786110878,0.029367340728640556,0.5401340126991272,,,,,,,,0.552300297550927,0.5522697795071336,0.5772640573739223,0.5642938887617304,91200.0,92900.0,93500.0,92900.0,17.52179193496704,0.3370565346761273,-0.006469825284199283,-0.0007171740291447319,0.3370565346761273,0.025,-0.048,8.63819,17.52179193496704,0.004,0.036,0.478,0.0,0.0,-0.0,1.0,0.0,0.0,0.0,0.0,0.0,0.218,0.0,0.0,0.001,17.52682638168335,3.746999979019165,False,True,False,True,True,False,False
107,1.07,0.016,0.029,0.534,-0.0027675412129610777,-0.0027675412129610777,0.0,0.999992311000824,1.5318803e-05,-0.0055350685,-0.005535153,-0.036,0.029,0.173,0.052,0.095,0.012,17.53638458251953,0.016207408159971237,0.029856685549020767,0.5436689257621765,,,,,,,,0.575265125505455,0.5896086060883498,0.5809109636072328,0.5640650034332799,90600.0,92900.0,93200.0,91500.0,17.539364337921143,0.9422751201647974,0.009445334554055084,-0.00039673456931410697,0.9422751201647974,0.089,-0.022,8.61419,17.539364337921143,0.004,0.036,0.482,0.0,0.0,-0.0,1.0,0.0,0.0,0.0,0.0,0.0,0.192,0.0,0.0,0.0,17.546669960021973,3.746999979019165,False,True,False,True,True,False,False
108,1.08,0.016,0.029,0.534,-0.0027675412129610777,-0.0027675412129610777,0.0,0.999992311000824,1.5318803e-05,-0.0055350685,-0.005535153,-0.036,0.029,0.173,0.052,0.095,0.012,17.53638458251953,0.016207408159971237,0.029856685549020767,0.5436689257621765,,,,,,,,0.575265125505455,0.5896086060883498,0.5809109636072328,0.5640650034332799,90600.0,92900.0,93200.0,91500.0,17.539364337921143,0.9422751201647974,0.009445334554055084,-0.00039673456931410697,0.9422751201647974,0.089,-0.022,8.61419,17.539364337921143,0.004,0.036,0.482,0.0,0.0,-0.0,1.0,0.0,0.0,0.0,0.0,0.0,0.192,0.0,0.0,0.0,17.546669960021973,3.746999979019165,False,True,False,True,True,False,False
109,1.09,0.016,0.029,0.539,-0.0027675412129610777,-0.0027675412129610777,0.0,0.999992311000824,1.5318803e-05,-0.0055350685,-0.005535153,-0.038,0.029,0.18,0.095,0.101,-0.003,17.547891855239868,0.015864763408899307,0.03000282123684883,0.5452426075935364,,,,,,,,0.5936217288471809,0.5746395056076905,0.5675898374914168,0.5831540398260472,92600.0,94600.0,94300.0,92900.0,17.548877239227295,0.4362706950484474,-0.010162508583199817,0.0010986495765621424,0.4362706950484474,0.066,-0.12,8.671190000000001,17.548877239227295,0.004,0.036,0.482,0.0,0.0,-0.0,1.0,0.0,0.0,0.0,0.0,0.0,0.192,0.0,0.0,0.0,17.546669960021973,3.746999979019165,False,True,False,True,True,False,False
110,1.1,0.015,0.029,0.535,-0.0013837706064805388,-0.0013837706064805388,0.0,0.9999980926513672,3.8296566e-06,-0.0027675394,-0.00276755,-0.039,0.03,0.135,0.115,0.109,0.0,17.563469886779785,0.015541333705186844,0.030227281153202057,0.5466037392616272,,,,,,,,0.5751277943083848,0.5681391622796979,0.5858701457236591,0.5993286030365453,93500.0,95200.0,94900.0,92900.0,17.559207916259766,0.7507591363393606,0.018371862363622492,0.0012817578393224994,0.7507591363393606,0.074,-0.137,8.77219,17.559207916259766,0.004,0.036,0.485,0.0,0.0,-0.0,1.0,0.0,0.0,0.0,0.0,0.0,0.166,0.0,0.0,0.0,17.56670379638672,3.742000102996826,False,True,False,True,True,False,False
111,1.11,0.015,0.03,0.536,-0.0013837706064805388,-0.0013837706064805388,0.0,0.9999980926513672,3.8296566e-06,-0.0027675394,-0.00276755,-0.039,0.03,0.124,0.079,0.11,-0.004,17.573800563812256,0.015171936713159084,0.030412526801228523,0.548104465007782,,,,,,,,0.550896467536431,0.5747615777828641,0.6182192721446556,0.5908140688181888,94300.0,94300.0,95500.0,94600.0,17.568835735321045,0.3023117418173495,0.021347371633478295,0.0001373311970702678,0.3023117418173495,0.064,-0.116,8.91319,17.568835735321045,0.004,0.036,0.485,0.0,0.0,-0.0,1.0,0.0,0.0,0.0,0.0,0.0,0.166,0.0,0.0,0.0,17.56670379638672,3.742000102996826,False,True,False,True,True,False,False
112,1.12,0.014,0.03,0.537,-0.0,-0.0013837706064805388,0.0,0.9999990463256836,0.0,-0.0027675421,-0.0,-0.04,0.03,0.114,0.028,0.088,-0.002,17.583428382873535,0.014811556786298752,0.030687185004353523,0.5493713021278381,,,,,,,,0.5812924391546502,0.5642023346303502,0.5860532539864195,0.6077210650797283,93500.0,95200.0,96200.0,95200.0,17.57924175262451,0.8264744029907682,-0.026382848859388113,0.0017242694743266956,0.8264744029907682,0.112,-0.093,9.03819,17.57924175262451,0.004,0.036,0.487,0.0,0.0,-0.0,1.0,0.0,0.0,0.0,0.0,0.0,0.153,0.0,0.0,0.0,17.585051774978638,3.742000102996826,False,True,False,True,True,False,False
113,1.1300000000000001,0.014,0.03,0.538,-0.0,-0.0,0.0,1.0,0.0,0.0,-0.0,-0.04,0.03,0.105,0.052,0.099,-0.005,17.593834400177002,0.014381775632500648,0.030887572094798088,0.5507446527481079,,,,,,,,0.5812924391546502,0.5642023346303502,0.5860532539864195,0.6077210650797283,93500.0,95200.0,96200.0,95200.0,17.57924175262451,0.01872281986724651,-0.01095597772182803,0.0006256198977645533,0.01872281986724651,0.112,-0.093,9.03819,17.57924175262451,0.004,0.036,0.49,0.0,0.0,-0.0,1.0,0.0,0.0,0.0,0.0,0.0,0.13,0.0,0.0,0.0,17.595996379852295,3.742000102996826,False,True,False,True,True,False,False
114,1.1400000000000001,0.014,0.03,0.54,0.0,0.0,0.0,1.0,0.0,0.0,0.0,-0.037,0.028,0.108,0.059,0.093,0.009,17.61218237876892,0.013480287045240402,0.031333863735198975,0.5529459714889526,,,,,,,,0.5387655451285572,0.5256427862973984,0.5249408712901503,0.5275043869687953,93800.0,94300.0,95200.0,93200.0,17.608534336090088,0.41820401312275884,0.004791332875562677,-0.0014496070801861601,0.41820401312275884,0.144,-0.109,9.049190000000001,17.608534336090088,0.004,0.036,0.491,0.0,0.0,-0.0,1.0,0.0,0.0,0.0,0.0,0.0,0.119,0.0,0.0,0.0,17.60655903816223,3.7309999465942383,False,True,False,True,True,False,False
115,1.1500000000000001,0.014,0.03,0.54,0.0,0.0,0.0,1.0,0.0,0.0,0.0,-0.037,0.028,0.108,0.059,0.093,0.009,17.61218237876892,0.013480287045240402,0.031333863735198975,0.5529459714889526,,,,,,,,0.5387655451285572,0.5256427862973984,0.5249408712901503,0.5275043869687953,93800.0,94300.0,95200.0,93200.0,17.608534336090088,0.41820401312275884,0.004791332875562677,-0.0014496070801861601,0.41820401312275884,0.144,-0.109,9.049190000000001,17.608534336090088,0.004,0.036,0.491,0.0,0.0,-0.0,1.0,0.0,0.0,0.0,0.0,0.0,0.119,0.0,0.0,0.0,17.60655903816223,3.7309999465942383,False,True,False,True,True,False,False
116,1.16,0.013,0.03,0.55,0.0013837706064805388,0.0013837706064805388,0.0,0.9999980926513672,3.8296566e-06,0.0027675394,0.00276755,-0.038,0.026,0.127,0.051,0.069,0.021,17.623126983642578,0.013209730386734009,0.031627804040908813,0.5539036393165588,,,,,,,,0.5157549401083391,0.5237201495384146,0.5465476462958724,0.5334554055085069,92600.0,93800.0,94600.0,92300.0,17.619096994400024,0.7136186770428016,0.019378957808804456,-0.0011444266422522317,0.7136186770428016,0.156,-0.146,8.86419,17.619096994400024,0.004,0.036,0.491,0.0,0.0,-0.0,1.0,0.0,0.0,0.0,0.0,0.0,0.119,0.0,0.0,0.0,17.60655903816223,3.7309999465942383,False,True,False,True,True,False,False
117,1.17,0.012,0.03,0.551,0.0013837706064805388,0.0013837706064805388,0.0,0.9999980926513672,3.8296566e-06,0.0027675394,0.00276755,-0.038,0.025,0.119,0.027,0.058,-0.001,17.633689641952515,0.012518542818725109,0.03212955594062805,0.5557172298431396,,,,,,,,0.5515831235217823,0.5302204928664073,0.5366598001068131,0.5658960860608835,91700.0,93500.0,93200.0,92600.0,17.63102388381958,0.8663767452506295,0.011581597619592585,0.00166323338673991,0.8663767452506295,0.129,-0.167,8.70419,17.63102388381958,0.004,0.036,0.491,0.0,0.0,-0.0,1.0,0.0,0.0,0.0,0.0,0.0,0.119,0.0,0.0,0.0,17.60655903816223,3.7309999465942383,False,True,False,True,True,False,False
118,1.18,0.012,0.031,0.549,0.0013837706064805388,0.0013837706064805388,0.0,0.9999980926513672,3.8296566e-06,0.0027675394,0.00276755,-0.037,0.025,0.104,0.006,0.102,-0.013,17.64561653137207,0.012109866365790367,0.03234843909740448,0.5564037561416626,,,,,,,,0.5515831235217823,0.5302204928664073,0.5366598001068131,0.5658960860608835,91700.0,93500.0,93200.0,92600.0,17.63102388381958,0.6416113527122912,0.012268253604943923,-0.0005188067444876783,0.6416113527122912,0.129,-0.167,8.70419,17.63102388381958,0.004,0.036,0.493,0.0,0.0,-0.0,1.0,0.0,0.0,0.0,0.0,0.0,0.098,0.0,0.0,0.0,17.752899169921875,3.753000020980835,False,True,False,True,True,False,False
119,1.19,0.012,0.031,0.549,0.0013837706064805388,0.0013837706064805388,0.0,0.9999980926513672,3.8296566e-06,0.0027675394,0.00276755,-0.037,0.025,0.104,0.006,0.102,-0.013,17.64561653137207,0.012109866365790367,0.03234843909740448,0.5564037561416626,,,,,,,,0.5515831235217823,0.5302204928664073,0.5366598001068131,0.5658960860608835,91700.0,93500.0,93200.0,92600.0,17.63102388381958,0.6416113527122912,0.012268253604943923,-0.0005188067444876783,0.6416113527122912,0.129,-0.167,8.70419,17.63102388381958,0.004,0.036,0.493,0.0,0.0,-0.0,1.0,0.0,0.0,0.0,0.0,0.0,0.098,0.0,0.0,0.0,17.752899169921875,3.753000020980835,False,True,False,True,True,False,False
120,1.2,0.012,0.031,0.55,0.0013837706064805388,0.0027675412129610777,0.0,0.999995231628418,7.6594015e-06,0.0055350843,0.0027675738,-0.037,0.025,0.093,0.013,0.091,0.019,17.780029773712158,0.01154316682368517,0.0326782651245594,0.5576161742210388,,,,,,,,0.5498130769817655,0.5370260166323338,0.5595178149080644,0.555214770733196,92000.0,93800.0,92900.0,92900.0,17.765437126159668,0.8955672541390097,0.01817349507896544,0.0028686961165789275,0.8955672541390097,0.153,-0.108,8.773190000000001,17.765437126159668,0.004,0.036,0.499,0.0,0.0,-0.0,1.0,0.0,0.0,0.0,0.0,0.0,0.003,0.0,0.0,0.0,17.798048496246338,3.753000020980835,False,True,False,True,True,False,False
121,1.21,0.012,0.031,0.55,0.0013837706064805388,0.0027675412129610777,0.0,0.999995231628418,7.6594015e-06,0.0055350843,0.0027675738,-0.037,0.025,0.093,0.013,0.091,0.019,17.780029773712158,0.01154316682368517,0.0326782651245594,0.5576161742210388,,,,,,,,0.5498130769817655,0.5370260166323338,0.5595178149080644,0.555214770733196,92000.0,93800.0,92900.0,92900.0,17.765437126159668,0.8955672541390097,0.01817349507896544,0.0028686961165789275,0.8955672541390097,0.153,-0.108,8.773190000000001,17.765437126159668,0.004,0.036,0.499,0.0,0.0,-0.0,1.0,0.0,0.0,0.0,0.0,0.0,0.003,0.0,0.0,0.0,17.798048496246338,3.753000020980835,False,True,False,True,True,False,False
122,1.22,0.009,0.033,0.546,0.0027675412129610777,0.004151311703026295,0.0,0.9999875426292419,2.2978644e-05,0.008302615,0.0055352324,-0.034,0.024,-0.014,-0.008,0.044,0.004,17.797995567321777,0.011183884926140308,0.03282604366540909,0.5579776763916016,,,,,,,,0.5310597390707256,0.565972381170367,0.5542534523537042,0.5297169451438163,107900.0,107900.0,111100.0,109900.0,17.79822611808777,0.8955672541390097,0.01817349507896544,0.0028686961165789275,0.8955672541390097,0.301,-0.194,12.479190000000001,17.79822611808777,0.004,0.036,0.499,0.0,0.0,-0.0,1.0,0.0,0.0,0.0,0.0,0.0,0.003,0.0,0.0,0.0,17.798048496246338,3.746999979019165,False,True,False,True,True,False,False
123,1.23,0.009,0.033,0.535,0.0027675412129610777,0.004151311703026295,0.0,0.9999875426292419,2.2978644e-05,0.008302615,0.0055352324,-0.033,0.024,-0.092,-0.006,0.032,-0.019,17.801807165145874,0.01098780706524849,0.03303416818380356,0.5583057403564453,,,,,,,,0.5046616311894407,0.5413748378728923,0.5392385748073548,0.5056382085908293,103400.0,105300.0,106400.0,105300.0,17.799697875976562,0.34605935759517814,0.005981536583504998,0.0037079423208972303,0.34605935759517814,0.287,-0.192,11.93319,17.799697875976562,0.004,0.036,0.499,0.0,0.0,-0.0,1.0,0.0,0.0,0.0,0.0,0.0,0.002,0.0,0.0,0.0,17.805975675582886,3.746999979019165,False,True,False,True,True,False,False
124,1.24,0.008,0.033,0.534,0.0027675412129610777,0.004151311703026295,0.0,0.9999875426292419,2.2978644e-05,0.008302615,0.0055352324,-0.032,0.023,-0.088,0.033,-0.001,-0.003,17.805243968963623,0.010205485858023167,0.03346339613199234,0.5586791038513184,,,,,,,,0.46977950713359273,0.48036926832990007,0.49703212024109256,0.4798504615854124,96200.0,100000.0,99700.0,96800.0,17.805453300476074,0.3872129396505684,0.03530937666895552,0.0008087281605249104,0.3872129396505684,0.208,-0.224,10.26019,17.805453300476074,0.004,0.036,0.499,0.0,0.0,-0.0,1.0,0.0,0.0,0.0,0.0,0.0,0.002,0.0,0.0,0.0,17.805975675582886,3.746999979019165,False,True,False,True,True,False,False
125,1.25,0.008,0.033,0.534,0.0027675412129610777,0.004151311703026295,0.0,0.9999875426292419,2.2978644e-05,0.008302615,0.0055352324,-0.032,0.023,-0.088,0.033,-0.001,-0.003,17.805243968963623,0.010205485858023167,0.03346339613199234,0.5586791038513184,,,,,,,,0.46977950713359273,0.48036926832990007,0.49703212024109256,0.4798504615854124,96200.0,100000.0,99700.0,96800.0,17.805453300476074,0.3872129396505684,0.03530937666895552,0.0008087281605249104,0.3872129396505684,0.208,-0.224,10.26019,17.805453300476074,0.004,0.036,0.499,0.0,0.0,-0.0,1.0,0.0,0.0,0.0,0.0,0.0,0.002,0.0,0.0,0.0,17.805975675582886,3.746999979019165,False,True,False,True,True,False,False
126,1.26,0.008,0.034,0.533,0.0027675412129610777,0.004151311703026295,0.0,0.9999875426292419,2.2978644e-05,0.008302615,0.0055352324,-0.031,0.023,-0.078,0.026,-0.031,-0.016,17.80820083618164,0.00990408007055521,0.03355788812041283,0.5591074824333191,,,,,,,,0.46977950713359273,0.48036926832990007,0.49703212024109256,0.4798504615854124,96200.0,100000.0,99700.0,96800.0,17.805453300476074,0.5039902342259861,-0.016357671473258565,-0.0009918364232852674,0.5039902342259861,0.208,-0.224,10.26019,17.805453300476074,0.004,0.036,0.499,0.0,0.0,-0.0,1.0,0.0,0.0,0.0,0.0,0.0,0.002,0.0,0.0,0.0,17.805975675582886,3.7049999237060547,False,True,False,True,True,False,False
127,1.27,0.008,0.034,0.523,0.0027675412129610777,0.004151311703026295,0.0,0.9999875426292419,2.2978644e-05,0.008302615,0.0055352324,-0.029,0.022,-0.103,-0.056,0.052,0.0,17.810171604156494,0.009547621943056583,0.0338757187128067,0.5593744516372681,,,,,,,,0.4738078889143206,0.46803997863736935,0.4720073243305104,0.48973830777447164,94600.0,95800.0,96500.0,94000.0,17.81058645248413,0.48163576714732587,0.0003356984817273213,-0.005310139620050355,0.48163576714732587,0.16,-0.245,9.53519,17.81058645248413,0.004,0.036,0.499,0.0,0.0,-0.0,1.0,0.0,0.0,0.0,0.0,0.0,0.001,0.0,0.0,0.0,17.821293830871582,3.7049999237060547,False,True,False,True,True,False,False
128,1.28,0.008,0.034,0.549,0.0027675412129610777,0.005535082425922155,0.0,0.9999808669090271,3.0639014e-05,0.01107018,0.005535344,-0.023,0.018,0.103,0.019,-0.03,-0.013,17.81281876564026,0.009311414323747158,0.03405655920505524,0.559848964214325,,,,,,,,0.4738078889143206,0.46803997863736935,0.4720073243305104,0.48973830777447164,94600.0,95800.0,96500.0,94000.0,17.81058645248413,0.8796826123445487,0.0052491035324635695,0.00012207217517357137,0.8796826123445487,0.16,-0.245,9.53519,17.81058645248413,0.004,0.036,0.499,0.0,0.0,-0.0,1.0,0.0,0.0,0.0,0.0,0.0,0.001,0.0,0.0,0.0,17.821293830871582,3.7049999237060547,False,True,False,True,True,False,False
129,1.29,0.008,0.034,0.551,0.0027675412129610777,0.004151311703026295,-0.0,0.9999875426292419,2.2978644e-05,0.008302615,0.0055352324,-0.02,0.017,0.15,0.021,-0.08,0.0,17.816874980926514,0.009223299100995064,0.03424552455544472,0.560605525970459,,,,,,,,0.4188754100862135,0.432120241092546,0.4506752117189288,0.4380407415884642,90900.0,95200.0,93500.0,92600.0,17.81851363182068,0.49881742580300603,0.006683451590753032,0.0005951018539711605,0.49881742580300603,0.171,-0.187,9.01619,17.81851363182068,0.004,0.036,0.499,0.0,0.0,-0.0,1.0,0.0,0.0,0.0,0.0,0.0,0.001,0.0,0.0,0.0,17.821293830871582,3.7049999237060547,False,True,False,True,True,False,False
130,1.3,0.007,0.034,0.553,0.0027675412129610777,0.004151311703026295,-0.0,0.9999875426292419,2.2978644e-05,0.008302615,0.0055352324,-0.019,0.014,0.174,0.007,-0.043,0.011,17.820045948028564,0.00901381392031908,0.03441416099667549,0.5615008473396301,,,,,,,,0.4188754100862135,0.432120241092546,0.4506752117189288,0.4380407415884642,90900.0,95200.0,93500.0,92600.0,17.81851363182068,0.6968947890440222,-0.007339589532310979,-0.003250171663996338,0.6968947890440222,0.171,-0.187,9.01619,17.81851363182068,0.004,0.036,0.499,0.0,0.0,-0.0,1.0,0.0,0.0,0.0,0.0,0.0,0.001,0.0,0.0,0.0,17.821293830871582,3.7049999237060547,False,True,False,True,True,False,False
131,1.31,0.007,0.034,0.553,0.0027675412129610777,0.004151311703026295,-0.0,0.9999875426292419,2.2978644e-05,0.008302615,0.0055352324,-0.019,0.014,0.174,0.007,-0.043,0.011,17.820045948028564,0.00901381392031908,0.03441416099667549,0.5615008473396301,,,,,,,,0.4188754100862135,0.432120241092546,0.4506752117189288,0.4380407415884642,90900.0,95200.0,93500.0,92600.0,17.81851363182068,0.6968947890440222,-0.007339589532310979,-0.003250171663996338,0.6968947890440222,0.171,-0.187,9.01619,17.81851363182068,0.004,0.036,0.499,0.0,0.0,-0.0,1.0,0.0,0.0,0.0,0.0,0.0,0.001,0.0,0.0,0.0,17.821293830871582,3.7049999237060547,False,True,False,True,True,False,False
132,1.32,0.007,0.034,0.555,0.0027675412129610777,0.004151311703026295,-0.0,0.9999875426292419,2.2978644e-05,0.008302615,0.0055352324,-0.018,0.013,0.178,-0.011,-0.033,-0.013,17.82517910003662,0.008464498445391655,0.0349360853433609,0.565704345703125,,,,,,,,0.4170443274586099,0.4075837338826581,0.42623025864042113,0.4384374761577783,88800.0,89800.0,91700.0,89300.0,17.833831787109375,0.5254749370565347,-0.023041123064011598,-0.0008697642481116961,0.5254749370565347,0.182,-0.133,8.58519,17.833831787109375,0.004,0.036,0.499,0.0,0.0,-0.0,1.0,0.0,0.0,0.0,0.0,0.0,0.0,0.0,0.0,0.0,17.825435161590576,3.609999895095825,False,True,False,True,True,False,False
133,1.33,0.007,0.034,0.555,0.0027675412129610777,0.004151311703026295,-0.0,0.9999875426292419,2.2978644e-05,0.008302615,0.0055352324,-0.018,0.013,0.178,-0.011,-0.033,-0.013,17.82517910003662,0.008464498445391655,0.0349360853433609,0.565704345703125,,,,,,,,0.4170443274586099,0.4075837338826581,0.42623025864042113,0.4384374761577783,88800.0,89800.0,91700.0,89300.0,17.833831787109375,0.5254749370565347,-0.023041123064011598,-0.0008697642481116961,0.5254749370565347,0.182,-0.133,8.58519,17.833831787109375,0.004,0.036,0.499,0.0,0.0,-0.0,1.0,0.0,0.0,0.0,0.0,0.0,0.0,0.0,0.0,0.0,17.825435161590576,3.609999895095825,False,True,False,True,True,False,False
134,1.34,0.007,0.034,0.555,0.0027675412129610777,0.004151311703026295,-0.0,0.9999875426292419,2.2978644e-05,0.008302615,0.0055352324,-0.018,0.013,0.178,-0.011,-0.033,-0.013,17.82517910003662,0.008464498445391655,0.0349360853433609,0.565704345703125,,,,,,,,0.4170443274586099,0.4075837338826581,0.42623025864042113,0.4384374761577783,88800.0,89800.0,91700.0,89300.0,17.833831787109375,0.5254749370565347,-0.023041123064011598,-0.0008697642481116961,0.5254749370565347,0.182,-0.133,8.58519,17.833831787109375,0.004,0.036,0.499,0.0,0.0,-0.0,1.0,0.0,0.0,0.0,0.0,0.0,0.0,0.0,0.0,0.0,17.825435161590576,3.609999895095825,False,True,False,True,True,False,False
135,1.35,0.007,0.034,0.563,0.0027675412129610777,0.004151311703026295,-0.0,0.9999875426292419,2.2978644e-05,0.008302615,0.0055352324,-0.017,0.013,0.206,-0.023,-0.012,0.007,17.83310627937317,0.0077977171167731285,0.03531733900308609,0.5706352591514587,,,,,,,,0.4170443274586099,0.4075837338826581,0.42623025864042113,0.4384374761577783,88800.0,89800.0,91700.0,89300.0,17.833831787109375,0.582360570687419,-0.029724574654764628,-0.0025940337224383916,0.582360570687419,0.182,-0.133,8.58519,17.833831787109375,0.004,0.036,0.499,0.0,0.0,-0.0,1.0,0.0,0.0,0.0,0.0,0.0,0.0,0.0,0.0,0.0,17.836875200271606,3.609999895095825,False,True,False,True,True,False,False
136,1.36,0.007,0.034,0.563,0.0027675412129610777,0.004151311703026295,-0.0,0.9999875426292419,2.2978644e-05,0.008302615,0.0055352324,-0.017,0.013,0.206,-0.023,-0.012,0.007,17.83310627937317,0.0077977171167731285,0.03531733900308609,0.5706352591514587,,,,,,,,0.4170443274586099,0.4075837338826581,0.42623025864042113,0.4384374761577783,88800.0,89800.0,91700.0,89300.0,17.833831787109375,0.582360570687419,-0.029724574654764628,-0.0025940337224383916,0.582360570687419,0.182,-0.133,8.58519,17.833831787109375,0.004,0.036,0.499,0.0,0.0,-0.0,1.0,0.0,0.0,0.0,0.0,0.0,0.0,0.0,0.0,0.0,17.836875200271606,3.609999895095825,False,True,False,True,True,False,False
137,1.37,0.007,0.034,0.563,0.0027675412129610777,0.004151311703026295,-0.0,0.9999875426292419,2.2978644e-05,0.008302615,0.0055352324,-0.017,0.013,0.206,-0.023,-0.012,0.007,17.83310627937317,0.0077977171167731285,0.03531733900308609,0.5706352591514587,,,,,,,,0.4170443274586099,0.4075837338826581,0.42623025864042113,0.4384374761577783,88800.0,89800.0,91700.0,89300.0,17.833831787109375,0.582360570687419,-0.029724574654764628,-0.0025940337224383916,0.582360570687419,0.182,-0.133,8.58519,17.833831787109375,0.004,0.036,0.499,0.0,0.0,-0.0,1.0,0.0,0.0,0.0,0.0,0.0,0.0,0.0,0.0,0.0,17.836875200271606,3.609999895095825,False,True,False,True,True,False,False
138,1.3800000000000001,0.007,0.035,0.568,0.0027675412129610777,0.004151311703026295,-0.0,0.9999875426292419,2.2978644e-05,0.008302615,0.0055352324,-0.015,0.013,0.208,-0.038,-0.013,-0.002,17.848424434661865,0.0075710248202085495,0.03566158935427666,0.5746694207191467,,,,,,,,0.45055313954375525,0.45342183566033417,0.4736552986953536,0.46553749904631114,85200.0,86700.0,87700.0,85700.0,17.8494131565094,0.6798657206073091,-0.012954909590295263,-0.00015259021896696422,0.6798657206073091,0.189,-0.093,7.740189999999999,17.8494131565094,0.004,0.036,0.499,0.0,0.0,0.0,1.0,0.0,0.0,0.0,0.0,0.0,0.0,0.0,0.0,0.0,17.861368894577026,3.7839999198913574,False,True,False,True,True,False,False
139,1.3900000000000001,0.007,0.035,0.568,0.0027675412129610777,0.004151311703026295,-0.0,0.9999875426292419,2.2978644e-05,0.008302615,0.0055352324,-0.015,0.013,0.208,-0.038,-0.013,-0.002,17.848424434661865,0.0075710248202085495,0.03566158935427666,0.5746694207191467,,,,,,,,0.45055313954375525,0.45342183566033417,0.4736552986953536,0.46553749904631114,85200.0,86700.0,87700.0,85700.0,17.8494131565094,0.6798657206073091,-0.012954909590295263,-0.00015259021896696422,0.6798657206073091,0.189,-0.093,7.740189999999999,17.8494131565094,0.004,0.036,0.499,0.0,0.0,0.0,1.0,0.0,0.0,0.0,0.0,0.0,0.0,0.0,0.0,0.0,17.861368894577026,3.7839999198913574,False,True,False,True,True,False,False
140,1.4000000000000001,0.006,0.035,0.566,0.0027675412129610777,0.004151311703026295,-0.0,0.9999875426292419,2.2978644e-05,0.008302615,0.0055352324,-0.015,0.012,0.172,-0.032,0.001,0.009,17.86400580406189,0.007373929023742676,0.035838279873132706,0.5755707621574402,,,,,,,,0.45610742351415273,0.46459143968871597,0.4553139543755245,0.45683985656519416,84000.0,86500.0,87000.0,85200.0,17.858535289764404,0.2332951857785916,0.010849164568551155,-0.000686655985351339,0.2332951857785916,0.168,-0.153,7.52419,17.858535289764404,0.004,0.036,0.499,0.0,0.0,0.0,1.0,0.0,0.0,0.0,0.0,0.0,0.0,0.0,0.0,0.0,17.861368894577026,3.7839999198913574,False,True,False,True,True,False,False
141,1.41,0.006,0.035,0.571,0.0027675412129610777,0.004151311703026295,-0.0,0.9999875426292419,2.2978644e-05,0.008302615,0.0055352324,-0.014,0.011,0.16,-0.006,-0.002,-0.002,17.873127937316895,0.007269195280969143,0.0360143706202507,0.5761941075325012,,,,,,,,0.46967269398031586,0.4614938582436866,0.46970321202410925,0.467505912870985,84500.0,85200.0,85200.0,84700.0,17.87390685081482,0.7487907225146868,0.010269321736476692,0.002105745021744106,0.7487907225146868,0.19,-0.13,7.3951899999999995,17.87390685081482,0.004,0.036,0.499,0.0,0.0,0.0,1.0,0.0,0.0,0.0,0.0,0.0,0.0,0.0,0.0,0.0,17.875728368759155,3.7839999198913574,False,True,False,True,True,False,False
142,1.42,0.006,0.035,0.571,0.0027675412129610777,0.004151311703026295,-0.0,0.9999875426292419,2.2978644e-05,0.008302615,0.0055352324,-0.014,0.011,0.16,-0.006,-0.002,-0.002,17.873127937316895,0.007269195280969143,0.0360143706202507,0.5761941075325012,,,,,,,,0.46967269398031586,0.4614938582436866,0.46970321202410925,0.467505912870985,84500.0,85200.0,85200.0,84700.0,17.87390685081482,0.7487907225146868,0.010269321736476692,0.002105745021744106,0.7487907225146868,0.19,-0.13,7.3951899999999995,17.87390685081482,0.004,0.036,0.499,0.0,0.0,0.0,1.0,0.0,0.0,0.0,0.0,0.0,0.0,0.0,0.0,0.0,17.875728368759155,3.7839999198913574,False,True,False,True,True,False,False
143,1.43,0.006,0.035,0.574,0.0027675412129610777,0.004151311703026295,-0.0,0.9999875426292419,2.2978644e-05,0.008302615,0.0055352324,-0.013,0.011,0.141,0.011,-0.01,0.008,17.88849949836731,0.007156099192798138,0.03624304383993149,0.5769913196563721,,,,,,,,0.5328603036545357,0.540337224383917,0.5570916304264897,0.5443656061646448,84700.0,85000.0,85200.0,84500.0,17.88826632499695,0.6021057450217441,-0.0034790569924467844,-0.0025024795910582134,0.6021057450217441,0.137,-0.18,7.26119,17.88826632499695,0.004,0.036,0.499,0.0,0.0,0.0,1.0,0.0,0.0,0.0,0.0,0.0,0.0,0.0,0.0,0.0,17.885714530944824,3.7950000762939453,False,True,False,True,True,False,False
144,1.44,0.006,0.035,0.568,0.0027675412129610777,0.004151311703026295,0.0,0.9999875426292419,2.2978644e-05,0.008302615,0.0055352324,-0.012,0.011,0.063,0.02,-0.03,0.007,17.90285897254944,0.007108927704393864,0.03633634373545647,0.5770464539527893,,,,,,,,0.5681086442359045,0.5696650644693675,0.5501335164415961,0.5629205767910277,85200.0,85500.0,86700.0,85500.0,17.898252487182617,0.1561303120469978,0.0030060273136491952,0.0025940337224383916,0.1561303120469978,0.17,-0.156,7.3631899999999995,17.898252487182617,0.004,0.036,0.499,0.0,0.0,0.0,1.0,0.0,0.0,0.0,0.0,0.0,0.0,0.0,0.0,0.0,17.91212797164917,3.7950000762939453,False,True,False,True,True,False,False
145,1.45,0.006,0.035,0.569,0.0027675412129610777,0.004151311703026295,0.0,0.9999875426292419,2.2978644e-05,0.008302615,0.0055352324,-0.011,0.011,0.038,0.009,-0.011,-0.021,17.912845134735107,0.007108927704393864,0.03633634373545647,0.5770464539527893,,,,,,,,0.5486228732738232,0.5529259174486916,0.5715724422064545,0.5629358358129244,87700.0,87700.0,88200.0,87500.0,17.90859603881836,0.5112382696269169,0.0028992141603723202,-0.0008392462043183033,0.5112382696269169,0.08,-0.066,7.65919,17.90859603881836,0.004,0.036,0.499,0.0,0.0,0.0,1.0,0.0,0.0,0.0,0.0,0.0,0.0,0.0,0.0,0.0,17.91620182991028,3.7950000762939453,False,True,False,True,True,False,False
146,1.46,0.006,0.036,0.573,0.0027675412129610777,0.004151311703026295,-0.0,0.9999875426292419,2.2978644e-05,0.008302615,0.0055352324,-0.01,0.01,0.03,0.004,-0.033,0.01,17.92318868637085,0.007046016864478588,0.036559730768203735,0.5764650106430054,,,,,,,,0.5407034409094377,0.5542229343099108,0.5882810711833372,0.5734187838559548,87700.0,89300.0,88500.0,87700.0,17.924665927886963,0.1770046540016785,-0.010101472495613032,0.0013122758831158924,0.1770046540016785,0.119,-0.14,7.94419,17.924665927886963,0.004,0.036,0.499,0.0,0.0,0.0,1.0,0.0,0.0,0.0,0.0,0.0,0.0,0.0,0.0,0.0,17.925760746002197,3.7739999294281006,False,True,False,True,True,False,False
147,1.47,0.006,0.036,0.573,0.0027675412129610777,0.004151311703026295,-0.0,0.9999875426292419,2.2978644e-05,0.008302615,0.0055352324,-0.01,0.01,0.03,0.004,-0.033,0.01,17.92318868637085,0.007046016864478588,0.036559730768203735,0.5764650106430054,,,,,,,,0.5407034409094377,0.5542229343099108,0.5882810711833372,0.5734187838559548,87700.0,89300.0,88500.0,87700.0,17.924665927886963,0.1770046540016785,-0.010101472495613032,0.0013122758831158924,0.1770046540016785,0.119,-0.14,7.94419,17.924665927886963,0.004,0.036,0.499,0.0,0.0,0.0,1.0,0.0,0.0,0.0,0.0,0.0,0.0,0.0,0.0,0.0,17.925760746002197,3.7739999294281006,False,True,False,True,True,False,False
148,1.48,0.006,0.036,0.575,0.0027675412129610777,0.004151311703026295,-0.0,0.9999875426292419,2.2978644e-05,0.008302615,0.0055352324,-0.009,0.01,0.016,-0.052,-0.036,0.002,17.939258575439453,0.0068917712196707726,0.03685849532485008,0.5751200914382935,,,,,,,,0.6359655146105134,0.6307774471656367,0.613473716334783,0.6206149385824369,91500.0,92600.0,94000.0,92600.0,17.93829870223999,0.10893415732051576,-0.00648508430609598,0.001083390554665446,0.10893415732051576,0.147,-0.123,8.43519,17.93829870223999,0.004,0.036,0.499,0.0,0.0,0.0,1.0,0.0,0.0,0.0,0.0,0.0,0.0,0.0,0.0,0.0,17.94787287712097,3.7739999294281006,False,True,False,True,True,False,False
149,1.49,0.006,0.036,0.567,0.0013837706064805388,0.0027675412129610777,-0.0,0.999995231628418,7.6594015e-06,0.0055350843,0.0027675738,-0.007,0.009,-0.035,-0.011,-0.042,-0.007,17.95289134979248,0.006740345619618893,0.036878738552331924,0.5741317868232727,,,,,,,,0.6162050812542916,0.6236820019836729,0.6137941557946136,0.6130312046997788,92900.0,94300.0,94300.0,94000.0,17.949905395507812,0.4251773861295491,-0.014206149385824368,0.0003356984817273213,0.4251773861295491,0.132,-0.102,8.83519,17.949905395507812,0.004,0.036,0.499,0.0,0.0,0.0,1.0,0.0,0.0,0.0,0.0,0.0,0.0,0.0,0.0,0.0,17.94787287712097,3.7739999294281006,False,True,False,True,True,False,False
150,1.5,0.006,0.036,0.571,0.0013837706064805388,0.0027675412129610777,-0.0,0.999995231628418,7.6594015e-06,0.0055350843,0.0027675738,-0.008,0.008,-0.035,0.016,-0.034,-0.008,17.964498043060303,0.006740802899003029,0.037160880863666534,0.5721369981765747,,,,,,,,0.6124208438239109,0.6125429159990845,0.6207827878233005,0.6264591439688716,96500.0,97100.0,98000.0,96200.0,17.9683575630188,0.05255207141222248,0.0061799038681620505,-0.0004882887006942855,0.05255207141222248,0.095,-0.203,9.46319,17.9683575630188,0.004,0.036,0.499,0.0,0.0,0.0,1.0,0.0,0.0,0.0,0.0,0.0,0.0,0.0,0.0,0.0,17.97527313232422,3.7309999465942383,False,True,False,True,True,False,False
151,1.51,0.006,0.036,0.571,0.0013837706064805388,0.0027675412129610777,-0.0,0.999995231628418,7.6594015e-06,0.0055350843,0.0027675738,-0.008,0.008,-0.035,0.016,-0.034,-0.008,17.964498043060303,0.006740802899003029,0.037160880863666534,0.5721369981765747,,,,,,,,0.6124208438239109,0.6125429159990845,0.6207827878233005,0.6264591439688716,96500.0,97100.0,98000.0,96200.0,17.9683575630188,0.05255207141222248,0.0061799038681620505,-0.0004882887006942855,0.05255207141222248,0.095,-0.203,9.46319,17.9683575630188,0.004,0.036,0.499,0.0,0.0,0.0,1.0,0.0,0.0,0.0,0.0,0.0,0.0,0.0,0.0,0.0,17.97527313232422,3.7309999465942383,False,True,False,True,True,False,False
152,1.52,0.006,0.036,0.572,0.0013837706064805388,0.0027675412129610777,-0.0,0.999995231628418,7.6594015e-06,0.0055350843,0.0027675738,-0.008,0.008,-0.038,-0.003,-0.039,0.004,17.975003480911255,0.006576770916581154,0.03726237267255783,0.571233332157135,,,,,,,,0.6454261081864653,0.6587319752803845,0.6881818875410086,0.6774395361257344,96800.0,99700.0,99000.0,97400.0,17.979984521865845,0.8688487067978943,-0.00413519493400473,-0.0016784924086366065,0.8688487067978943,0.135,-0.198,9.664190000000001,17.979984521865845,0.004,0.036,0.499,0.0,0.0,0.0,1.0,0.0,0.0,0.0,0.0,0.0,0.0,0.0,0.0,0.0,17.98691153526306,3.7309999465942383,False,True,False,True,True,False,False
153,1.53,0.005,0.036,0.564,0.0013837706064805388,0.0027675412129610777,-0.0,0.999995231628418,7.6594015e-06,0.0055350843,0.0027675738,-0.007,0.007,-0.078,-0.06,-0.059,0.005,17.994577169418335,0.006495571695268154,0.037352584302425385,0.5700141191482544,,,,,,,,0.6501106279087511,0.6298161287861448,0.6512092774853132,0.6641184100099183,99000.0,101400.0,101400.0,97700.0,17.98781108856201,0.38573281452658886,-0.0059662775616083005,-0.00044251163500419623,0.38573281452658886,0.134,-0.165,10.027190000000001,17.98781108856201,0.004,0.036,0.499,0.0,0.0,0.0,1.0,0.0,0.0,0.0,0.0,0.0,0.0,0.0,0.0,0.0,17.99603819847107,3.7309999465942383,False,True,False,True,True,False,False
154,1.54,0.005,0.036,0.567,0.0013837706064805388,0.0013837706064805388,-0.0,0.9999980926513672,3.8296566e-06,0.0027675394,0.00276755,-0.006,0.007,-0.064,-0.042,-0.035,0.011,18.002403736114502,0.006595541723072529,0.037489842623472214,0.5692629218101501,,,,,,,,0.6432135500114443,0.6313725490196078,0.6320744640268559,0.6474555580987259,100300.0,101700.0,103100.0,101700.0,17.999449491500854,0.21980621042191195,0.002777141985198749,-0.0014496070801861601,0.21980621042191195,0.125,-0.126,10.379190000000001,17.999449491500854,0.004,0.036,0.499,0.0,0.0,0.0,1.0,0.0,0.0,0.0,0.0,0.0,0.0,0.0,0.0,0.0,18.00828266143799,3.694999933242798,False,True,False,True,True,False,False
155,1.55,0.005,0.037,0.568,0.0013837706064805388,0.0013837706064805388,-0.0,0.9999980926513672,3.8296566e-06,0.0027675394,0.00276755,-0.006,0.007,-0.055,-0.03,0.016,-0.001,18.014042139053345,0.006682912819087505,0.03748802840709686,0.5683404803276062,,,,,,,,0.6330663004501411,0.6324254215304799,0.635233081559472,0.6254978255893797,101000.0,102400.0,101700.0,100000.0,18.008576154708862,0.8650034332799268,-0.012024109254596781,-0.0006408789196612497,0.8650034332799268,0.146,-0.111,10.48319,18.008576154708862,0.004,0.036,0.499,0.0,0.0,0.0,1.0,0.0,0.0,0.0,0.0,0.0,0.0,0.0,0.0,0.0,18.014939785003662,3.694999933242798,False,True,False,True,True,False,False
156,1.56,0.005,0.037,0.568,0.0013837706064805388,0.0013837706064805388,-0.0,0.9999980926513672,3.8296566e-06,0.0027675394,0.00276755,-0.005,0.007,-0.047,0.025,-0.028,0.014,18.023168802261353,0.006609747186303139,0.037696465849876404,0.5674512982368469,,,,,,,,0.6440070191500725,0.6493476768139163,0.6849622339208057,0.6888990615701533,102000.0,102700.0,102400.0,100700.0,18.02082061767578,0.09687953002212558,0.016601815823605707,0.001846341649500267,0.09687953002212558,0.152,-0.141,10.56719,18.02082061767578,0.004,0.036,0.499,0.0,0.0,0.0,1.0,0.0,0.0,0.0,0.0,0.0,0.0,0.0,0.0,0.0,18.030800580978394,3.694999933242798,False,True,False,True,True,False,False
157,1.57,0.005,0.037,0.56,0.0013837706064805388,0.0013837706064805388,-0.0,0.9999980926513672,3.8296566e-06,0.0027675394,0.00276755,-0.004,0.007,-0.064,-0.03,-0.042,-0.01,18.03541326522827,0.0066118743270635605,0.037753067910671234,0.566163957118988,,,,,,,,0.6163118944075685,0.6355687800411993,0.631662470435645,0.6225986114290074,102400.0,103400.0,104500.0,103800.0,18.043338537216187,0.4610971236743725,0.013611047531853208,-0.0008850232700083925,0.4610971236743725,0.152,-0.148,10.85819,18.043338537216187,0.004,0.036,0.499,0.0,0.0,0.0,1.0,0.0,0.0,0.0,0.0,0.0,0.0,0.0,0.0,0.0,18.046882152557373,3.684000015258789,False,True,False,True,True,False,False
158,1.58,0.005,0.037,0.56,0.0013837706064805388,0.0013837706064805388,-0.0,0.9999980926513672,3.8296566e-06,0.0027675394,0.00276755,-0.004,0.007,-0.064,-0.03,-0.042,-0.01,18.03541326522827,0.0066118743270635605,0.037753067910671234,0.566163957118988,,,,,,,,0.6163118944075685,0.6355687800411993,0.631662470435645,0.6225986114290074,102400.0,103400.0,104500.0,103800.0,18.043338537216187,0.4610971236743725,0.013611047531853208,-0.0008850232700083925,0.4610971236743725,0.152,-0.148,10.85819,18.043338537216187,0.004,0.036,0.499,0.0,0.0,0.0,1.0,0.0,0.0,0.0,0.0,0.0,0.0,0.0,0.0,0.0,18.046882152557373,3.684000015258789,False,True,False,True,True,False,False
159,1.59,0.005,0.037,0.564,0.0013837706064805388,0.0013837706064805388,-0.0,0.9999980926513672,3.8296566e-06,0.0027675394,0.00276755,-0.003,0.006,-0.027,-0.024,-0.048,-0.011,18.057931184768677,0.0067927418276667595,0.03806304931640625,0.5650486350059509,,,,,,,,0.5956206607156481,0.5858548867017624,0.6094148165102617,0.6125276569771878,101700.0,103800.0,103100.0,103100.0,18.059420108795166,0.43361562523842223,0.01019302662699321,0.0011444266422522317,0.43361562523842223,0.1,-0.097,10.777190000000001,18.059420108795166,0.004,0.036,0.499,0.0,0.0,0.0,1.0,0.0,0.0,0.0,0.0,0.0,0.0,0.0,0.0,0.0,18.067618131637573,3.684000015258789,False,True,False,True,True,False,False
160,1.6,0.005,0.037,0.564,0.0013837706064805388,0.0013837706064805388,-0.0,0.9999980926513672,3.8296566e-06,0.0027675394,0.00276755,-0.003,0.006,-0.027,-0.024,-0.048,-0.011,18.057931184768677,0.0067927418276667595,0.03806304931640625,0.5650486350059509,,,,,,,,0.5956206607156481,0.5858548867017624,0.6094148165102617,0.6125276569771878,101700.0,103800.0,103100.0,103100.0,18.059420108795166,0.43361562523842223,0.01019302662699321,0.0011444266422522317,0.43361562523842223,0.1,-0.097,10.777190000000001,18.059420108795166,0.004,0.036,0.499,0.0,0.0,0.0,1.0,0.0,0.0,0.0,0.0,0.0,0.0,0.0,0.0,0.0,18.067618131637573,3.684000015258789,False,True,False,True,True,False,False
161,1.61,0.005,0.037,0.565,0.0,0.0013837706064805388,-0.0,0.9999990463256836,0.0,0.0027675421,0.0,-0.002,0.005,0.002,-0.013,-0.011,0.012,18.074012756347656,0.0065943580120801926,0.0381288081407547,0.5647635459899902,,,,,,,,0.6331578545815213,0.6231479362172885,0.6332494087129015,0.6544899671931029,100300.0,102000.0,102400.0,101000.0,18.06805443763733,0.39078355077439536,-0.01416037232013428,-0.0025482566567483025,0.39078355077439536,0.126,-0.094,10.65619,18.06805443763733,0.004,0.036,0.499,0.0,0.0,0.0,1.0,0.0,0.0,0.0,0.0,0.0,0.0,0.0,0.0,0.0,18.067618131637573,3.684000015258789,False,True,False,True,True,False,False
162,1.62,0.005,0.037,0.557,0.0,0.0013837706064805388,-0.0,0.9999990463256836,0.0,0.0027675421,0.0,-0.002,0.005,-0.016,-0.017,-0.008,-0.012,18.08264708518982,0.00675272848457098,0.03818850219249725,0.5645264983177185,,,,,,,,0.576272220950637,0.6167696650644694,0.6407263294422828,0.5901579308766308,100300.0,101400.0,101700.0,101000.0,18.080156087875366,0.39078355077439536,-0.01416037232013428,-0.0025482566567483025,0.39078355077439536,0.173,-0.171,10.59519,18.080156087875366,0.004,0.036,0.499,0.0,0.0,0.0,1.0,0.0,0.0,0.0,0.0,0.0,0.0,0.0,0.0,0.0,18.086071968078613,3.684000015258789,False,True,False,True,True,False,False
163,1.6300000000000001,0.005,0.037,0.56,0.0,0.0013837706064805388,-0.0,0.9999990463256836,0.0,0.0027675421,0.0,-0.001,0.006,0.009,-0.009,-0.088,0.016,18.094748735427856,0.006824885495007038,0.03831987455487251,0.5641820430755615,,,,,,,,0.5822842755779355,0.5702601663233386,0.580849927519646,0.5960479133287556,98000.0,101700.0,100700.0,99000.0,18.098609924316406,0.819150072480354,0.006454566262302586,0.00166323338673991,0.819150072480354,0.061,-0.085,10.44619,18.098609924316406,0.004,0.036,0.499,0.0,0.0,0.0,1.0,0.0,0.0,0.0,0.0,0.0,0.0,0.0,0.0,0.0,18.107691049575806,3.684000015258789,False,True,False,True,True,False,False
164,1.6400000000000001,0.005,0.037,0.56,0.0,0.0013837706064805388,-0.0,0.9999990463256836,0.0,0.0027675421,0.0,-0.001,0.006,0.009,-0.009,-0.088,0.016,18.094748735427856,0.006824885495007038,0.03831987455487251,0.5641820430755615,,,,,,,,0.5822842755779355,0.5702601663233386,0.580849927519646,0.5960479133287556,98000.0,101700.0,100700.0,99000.0,18.098609924316406,0.819150072480354,0.006454566262302586,0.00166323338673991,0.819150072480354,0.061,-0.085,10.44619,18.098609924316406,0.004,0.036,0.499,0.0,0.0,0.0,1.0,0.0,0.0,0.0,0.0,0.0,0.0,0.0,0.0,0.0,18.107691049575806,3.684000015258789,False,True,False,True,True,False,False
165,1.6500000000000001,0.005,0.037,0.562,0.0,0.0,-0.0,1.0,0.0,0.0,0.0,-0.001,0.006,0.031,0.003,-0.024,-0.002,18.113202571868896,0.006880555301904678,0.03838217630982399,0.5639904737472534,,,,,,,,0.5987335011825742,0.6118562600137332,0.6303807125963226,0.6164644846265355,98400.0,100300.0,100300.0,97700.0,18.108360767364502,0.8169680323491264,0.015640497444113832,-0.0028076600289921416,0.8169680323491264,0.089,-0.114,10.08319,18.108360767364502,0.004,0.036,0.499,0.0,0.0,0.0,1.0,0.0,0.0,0.0,0.0,0.0,0.0,0.0,0.0,0.0,18.115421295166016,3.684000015258789,False,True,False,True,True,False,False
166,1.6600000000000001,0.005,0.038,0.556,0.0,-0.0,-0.0,1.0,-0.0,0.0,0.0,-0.001,0.007,0.013,0.006,-0.053,0.003,18.122953414916992,0.006927249021828175,0.03844210132956505,0.5639838576316833,,,,,,,,0.5918516823071641,0.5729304951552605,0.5827878233005265,0.6280155642023346,97700.0,99700.0,101000.0,98700.0,18.1202290058136,0.12999160753795683,-0.04554818036163882,0.0025177386129549098,0.12999160753795683,0.109,-0.127,10.017190000000001,18.1202290058136,0.004,0.036,0.499,0.0,0.0,0.0,1.0,0.0,0.0,0.0,0.0,0.0,0.0,0.0,0.0,0.0,18.126894235610962,3.7160000801086426,False,True,False,True,True,False,False
167,1.67,0.005,0.038,0.559,0.0,-0.0,-0.0,1.0,-0.0,0.0,0.0,-0.001,0.007,0.026,-0.024,0.005,-0.032,18.13482165336609,0.006962815299630165,0.03858613222837448,0.5638631582260132,,,,,,,,0.5954222934309911,0.5879148546578165,0.5831540398260472,0.5925535973144122,97700.0,99700.0,99000.0,98400.0,18.139432191848755,0.27571526665140766,-0.01351949340047303,0.00019836728465705348,0.27571526665140766,0.113,-0.088,9.85319,18.139432191848755,0.004,0.036,0.499,0.0,0.0,0.0,1.0,0.0,0.0,0.0,0.0,0.0,0.0,0.0,0.0,0.0,18.145963430404663,3.7160000801086426,False,True,False,True,True,False,False
168,1.68,0.005,0.038,0.559,0.0,-0.0,-0.0,1.0,-0.0,0.0,0.0,-0.001,0.007,0.026,-0.024,0.005,-0.032,18.13482165336609,0.006962815299630165,0.03858613222837448,0.5638631582260132,,,,,,,,0.5954222934309911,0.5879148546578165,0.5831540398260472,0.5925535973144122,97700.0,99700.0,99000.0,98400.0,18.139432191848755,0.27571526665140766,-0.01351949340047303,0.00019836728465705348,0.27571526665140766,0.113,-0.088,9.85319,18.139432191848755,0.004,0.036,0.499,0.0,0.0,0.0,1.0,0.0,0.0,0.0,0.0,0.0,0.0,0.0,0.0,0.0,18.145963430404663,3.7160000801086426,False,True,False,True,True,False,False
169,1.69,0.005,0.038,0.56,0.0,-0.0,-0.0,1.0,-0.0,0.0,0.0,-0.001,0.006,0.03,0.039,-0.05,0.001,18.154024839401245,0.007067286409437656,0.038613006472587585,0.5638353824615479,,,,,,,,0.5750057221332112,0.5746395056076905,0.5757991912718394,0.5820859082932784,97400.0,98400.0,98000.0,96200.0,18.148749589920044,0.03859006637674525,0.032074464026855876,-0.006576638437476158,0.03859006637674525,0.08,-0.099,9.81719,18.148749589920044,0.004,0.036,0.499,0.0,0.0,0.0,1.0,0.0,0.0,0.0,0.0,0.0,0.0,0.0,0.0,0.0,18.155920267105103,3.7160000801086426,False,True,False,True,True,False,False
170,1.7,0.005,0.038,0.562,0.0,-0.0,-0.0,1.0,-0.0,0.0,0.0,-0.001,0.006,0.04,0.04,-0.021,-0.003,18.163342237472534,0.007081710733473301,0.038679152727127075,0.5637692213058472,,,,,,,,0.5960631723506523,0.5967956054016937,0.6102235446707867,0.6028381780727855,97400.0,99300.0,96500.0,96500.0,18.158501386642456,0.4330205233844511,-0.018539711604486152,0.0017547875181200886,0.4330205233844511,0.061,-0.102,9.74719,18.158501386642456,0.004,0.036,0.499,0.0,0.0,0.0,1.0,0.0,0.0,0.0,0.0,0.0,0.0,0.0,0.0,0.0,18.165663719177246,3.7209999561309814,False,True,False,True,True,False,False
171,1.71,0.006,0.038,0.559,0.0013837706064805388,-0.0,-0.0,0.9999990463256836,-0.0,0.0,0.0027675421,0.001,0.005,0.019,0.009,-0.048,0.013,18.173094034194946,0.007095468230545521,0.03886896371841431,0.5636277794837952,,,,,,,,0.6138094148165103,0.5780727855344472,0.5908293278400855,0.6230869001297017,96800.0,99700.0,98700.0,97100.0,18.168458223342896,0.9790493629358358,0.008468757152666513,-0.0004730296787975891,0.9790493629358358,0.084,-0.093,9.69719,18.168458223342896,0.004,0.036,0.499,0.0,0.0,0.0,1.0,0.0,0.0,0.0,0.0,0.0,0.0,0.0,0.0,0.0,18.175702571868896,3.7209999561309814,False,True,False,True,True,False,False
172,1.72,0.006,0.038,0.559,0.0013837706064805388,-0.0013837706064805388,-0.0,0.9999980926513672,-3.8296566e-06,-0.0027675394,0.00276755,0.0,0.005,0.019,0.001,-0.024,0.01,18.183050870895386,0.007134435698390007,0.038769885897636414,0.5636289119720459,,,,,,,,0.5731898985275043,0.5713588158999008,0.600503547722591,0.6003204394598306,96200.0,97700.0,98700.0,96200.0,18.17820167541504,0.682887006942855,0.003341725795376516,-0.0014801251239795529,0.682887006942855,0.07,-0.105,9.78719,18.17820167541504,0.004,0.036,0.499,0.0,0.0,0.0,1.0,0.0,0.0,0.0,0.0,0.0,0.0,0.0,0.0,0.0,18.185471057891846,3.7209999561309814,False,True,False,True,True,False,False
173,1.73,0.006,0.038,0.561,0.0013837706064805388,-0.0013837706064805388,-0.0,0.9999980926513672,-3.8296566e-06,-0.0027675394,0.00276755,0.001,0.004,0.03,-0.022,-0.056,0.004,18.19279432296753,0.007123204879462719,0.0388915054500103,0.5635544657707214,,,,,,,,0.594171053635462,0.5530632486457618,0.5638666361486229,0.6116273746852827,96800.0,98000.0,99000.0,96500.0,18.18824052810669,0.9780727855344472,-0.004074158846417945,0.00166323338673991,0.9780727855344472,0.043,-0.111,9.77219,18.18824052810669,0.004,0.036,0.499,0.0,0.0,0.0,1.0,0.0,0.0,0.0,0.0,0.0,0.0,0.0,0.0,0.0,18.197194814682007,3.7209999561309814,False,True,False,True,True,False,False
174,1.74,0.006,0.038,0.562,0.0013837706064805388,-0.0013837706064805388,-0.0,0.9999980926513672,-3.8296566e-06,-0.0027675394,0.00276755,0.001,0.004,0.034,-0.015,-0.044,-0.006,18.20283317565918,0.007195263169705868,0.03901892155408859,0.5634841322898865,,,,,,,,0.6127260242618449,0.6150759136339361,0.6399786373693446,0.6369573510337987,96200.0,98000.0,98400.0,95200.0,18.19800901412964,0.9689173723964294,0.03401235980773632,0.0008697642481116961,0.9689173723964294,0.05,-0.132,9.68919,18.19800901412964,0.004,0.036,0.499,0.0,0.0,0.0,1.0,0.0,0.0,0.0,0.0,0.0,0.0,0.0,0.0,0.0,18.20606279373169,3.7309999465942383,False,True,False,True,True,False,False
175,1.75,0.006,0.038,0.555,0.0,-0.0013837706064805388,-0.0,0.9999990463256836,-0.0,-0.0027675421,0.0,0.002,0.004,0.0,-0.022,-0.04,0.003,18.21260166168213,0.007237779907882214,0.03894810751080513,0.563336193561554,,,,,,,,0.586678873884184,0.5843289845120928,0.6132295719844358,0.6041046768902113,97100.0,97400.0,98700.0,97400.0,18.2097327709198,0.10466163118944076,0.0008392462043183033,0.000503547722590982,0.10466163118944076,0.052,-0.142,9.66719,18.2097327709198,0.004,0.036,0.499,0.0,0.0,0.0,1.0,0.0,0.0,0.0,0.0,0.0,0.0,0.0,0.0,0.0,18.217844486236572,3.7309999465942383,False,True,False,True,True,False,False
