,t,x,y,z,qx,qy,qz,qw,yaw,pitch,roll,vx,vy,vz,wx,wy,wz,ros_timestamp,x_poses,y_poses,z_poses,qx_poses,qy_poses,qz_poses,qw_poses,yaw_poses,pitch_poses,roll_poses,m1_thrust,m2_thrust,m3_thrust,m4_thrust,m1_erpm,m2_erpm,m3_erpm,m4_erpm,ros_timestamp_motors,thrust,torque_roll,torque_pitch,torch_yaw,ax,ay,az,ros_timestamp_image_accel,x_setpoint,y_setpoint,z_setpoint,qx_setpoint,qy_setpoint,qz_setpoint,qw_setpoint,yaw_setpoint,pitch_setpoint,roll_setpoint,vx_setpoint,vy_setpoint,vz_setpoint,wx_setpoint,wy_setpoint,wz_setpoint,ros_timestamp_setpoint,Vbat,can_be_armed,is_armed,auto_arm,can_fly,is_flying,is_tumbled,is_locked
0,0.0,0.036,-0.037,0.049,-0.004151311703026295,-0.0013837706064805388,-0.005535082425922155,0.9999750852584839,-0.01105867,-0.0028134317,-0.008287226,0.0,0.079,0.014,0.023,-0.09,0.002,27.86371421813965,0.036695338785648346,-0.038796186447143555,0.052377067506313324,,,,,,,,0.6976882581826505,0.7725795376516366,0.8469825284199283,0.7711757076371405,66200.0,70800.0,78100.0,70400.0,27.86371421813965,0.6596475165941863,-0.07687495231555658,0.0001373311970702678,0.6596475165941863,-0.028,0.024,9.80519,27.86692500114441,0.036,-0.037,0.051,0.0,0.0,-0.004151311703026295,0.9999913573265076,-0.008302647,0.0,0.0,0.0,0.0,0.0,0.0,0.0,0.0,27.86371421813965,3.26200008392334,False,True,False,True,True,False,False
1,0.01,0.036,-0.037,0.051,-0.004151311703026295,-0.0013837706064805388,-0.004151311703026295,0.9999818205833435,-0.008291111,-0.0028019615,-0.008291111,0.007,0.066,0.023,0.005,0.142,0.046,27.882404565811157,0.03671533986926079,-0.03878633305430412,0.05239126458764076,,,,,,,,0.7999847409781033,0.7205767910276951,0.7476462958724346,0.7863431754024567,85200.0,86200.0,97400.0,93500.0,27.882404565811157,0.8811169604028382,-0.00024414435034714275,-0.0032654306858930344,0.8811169604028382,0.009,0.03,9.84919,27.88088631629944,0.036,-0.037,0.051,0.0,0.0,-0.004151311703026295,0.9999913573265076,-0.008302647,0.0,0.0,0.0,0.0,0.001,0.0,0.0,0.0,27.882404565811157,3.26200008392334,False,True,False,True,True,False,False
2,0.02,0.036,-0.037,0.051,-0.004151311703026295,-0.0013837706064805388,-0.004151311703026295,0.9999818205833435,-0.008291111,-0.0028019615,-0.008291111,0.002,0.063,0.025,0.307,0.091,0.019,27.88984489440918,0.03664442151784897,-0.03878220543265343,0.05251674726605415,,,,,,,,0.8290989547570001,0.7996795605401694,0.7060196841382468,0.7203631647211414,95200.0,93500.0,102000.0,100300.0,27.88984489440918,0.489066910811017,0.08540474555580987,0.009811551079575799,0.489066910811017,-0.093,0.108,9.873190000000001,27.8866024017334,0.036,-0.037,0.051,0.0,0.0,-0.004151311703026295,0.9999913573265076,-0.008302647,0.0,0.0,0.0,0.0,0.001,0.0,0.0,0.0,27.88984489440918,3.436000108718872,False,True,False,True,True,False,False
3,0.03,0.036,-0.037,0.049,-0.0027675412129610777,-0.0,-0.004151311703026295,0.9999875426292419,-0.008302615,-2.2977852e-05,-0.005535042,0.003,0.06,0.021,0.604,0.088,0.013,27.89971947669983,0.036958999931812286,-0.038909122347831726,0.05277866870164871,,,,,,,,0.8755321583886473,0.7944151979858091,0.6879682612344549,0.7543755245288777,104200.0,103100.0,103400.0,102000.0,27.89971947669983,0.5302204928664073,0.009567406729228657,0.002822919050888838,0.5302204928664073,-0.084,0.173,10.19819,27.899576663970947,0.036,-0.037,0.051,0.0,0.0,-0.004151311703026295,0.9999913573265076,-0.008302647,0.0,0.0,0.0,0.0,0.002,0.0,0.0,0.0,27.89971947669983,3.436000108718872,False,True,False,True,True,False,False
4,0.04,0.036,-0.037,0.049,-0.0027675412129610777,-0.0,-0.004151311703026295,0.9999875426292419,-0.008302615,-2.2977852e-05,-0.005535042,0.003,0.06,0.021,0.604,0.088,0.013,27.89971947669983,0.036958999931812286,-0.038909122347831726,0.05277866870164871,,,,,,,,0.8755321583886473,0.7944151979858091,0.6879682612344549,0.7543755245288777,104200.0,103100.0,103400.0,102000.0,27.89971947669983,0.5302204928664073,0.009567406729228657,0.002822919050888838,0.5302204928664073,-0.084,0.173,10.19819,27.899576663970947,0.036,-0.037,0.051,0.0,0.0,-0.004151311703026295,0.9999913573265076,-0.008302647,0.0,0.0,0.0,0.0,0.002,0.0,0.0,0.0,27.89971947669983,3.436000108718872,False,True,False,True,True,False,False
5,0.05,0.036,-0.037,0.05,0.0,-0.0,-0.004151311703026295,0.9999913573265076,-0.008302647,0.0,0.0,0.004,0.051,0.043,0.395,0.193,0.022,27.912275314331055,0.036706261336803436,-0.0389857292175293,0.05432610958814621,,,,,,,,0.7966582742046234,0.68032349126421,0.7350728618295568,0.8294346532387274,109100.0,109100.0,104500.0,103400.0,27.912275314331055,0.6561074235141527,0.0771801327534905,0.005401693751430533,0.6561074235141527,0.004,0.245,11.89019,27.91689157485962,0.036,-0.037,0.051,0.0,0.0,-0.004151311703026295,0.9999913573265076,-0.008302647,0.0,0.0,0.0,0.0,0.004,0.0,0.0,0.0,27.912275314331055,3.436000108718872,False,True,False,True,True,False,False
6,0.06,0.036,-0.037,0.053,0.0027675412129610777,0.0013837706064805388,-0.004151311703026295,0.9999865889549255,-0.00829498,0.0027904857,0.005523569,0.012,0.065,0.109,-0.102,-0.055,-0.019,27.929715394973755,0.036732323467731476,-0.03888145089149475,0.05553925037384033,,,,,,,,0.683390554665446,0.6948348210879682,0.7404592965590906,0.7243152513923857,106400.0,106400.0,110700.0,110700.0,27.929715394973755,0.9158007171740291,0.0003356984817273213,0.004364080262455177,0.9158007171740291,-0.046,-0.035,12.85319,27.929447412490845,0.036,-0.037,0.051,0.0,0.0,-0.004151311703026295,0.9999913573265076,-0.008302647,0.0,0.0,0.0,0.0,0.008,0.0,0.0,0.0,27.929715394973755,3.552000045776367,False,True,False,True,True,False,False
7,0.07,0.036,-0.036,0.049,0.0027675412129610777,0.0027675412129610777,-0.0027675412129610777,0.9999884963035583,-0.0055198134,0.0055503654,0.0055198134,0.02,0.056,0.175,0.202,0.043,0.002,27.939720392227173,0.03689456358551979,-0.03891962394118309,0.05718158558011055,,,,,,,,0.8270847638666361,0.70595864805066,0.6132143129625391,0.7044937819485771,106400.0,106000.0,110700.0,110700.0,27.939720392227173,0.9531395437552453,-0.02537575341420615,0.0008850232700083925,0.9531395437552453,0.112,-0.22,13.57419,27.937182903289795,0.036,-0.037,0.051,0.0,0.0,-0.004151311703026295,0.9999913573265076,-0.008302647,0.0,0.0,0.0,0.0,0.011,0.0,0.0,0.0,27.939720392227173,3.552000045776367,False,True,False,True,True,False,False
8,0.08,0.036,-0.037,0.053,0.0027675412129610777,0.0027675412129610777,-0.0027675412129610777,0.9999884963035583,-0.0055198134,0.0055503654,0.0055198134,0.02,0.055,0.192,0.443,0.104,0.0,27.94930362701416,0.03685987740755081,-0.038951434195041656,0.05963962897658348,,,,,,,,0.7444876783398184,0.665140764476997,0.5843900205996796,0.6401159685664148,110300.0,106400.0,106800.0,107500.0,27.94930362701416,0.4470588235294118,0.06337071793698024,0.007736324101625086,0.4470588235294118,0.272,-0.111,13.98319,27.946887493133545,0.036,-0.037,0.051,0.0,0.0,-0.004151311703026295,0.9999913573265076,-0.008302647,0.0,0.0,0.0,0.0,0.014,0.0,0.0,0.0,27.94930362701416,3.552000045776367,False,True,False,True,True,False,False
9,0.09,0.036,-0.037,0.057,0.006918853148818016,0.004151311703026295,-0.0013837706064805388,0.9999665021896362,-0.0027101012,0.008321589,0.013826673,0.043,0.034,0.243,0.23,0.007,-0.037,27.959773778915405,0.0370197668671608,-0.03909929096698761,0.061947379261255264,,,,,,,,0.6161287861448081,0.5592431525139239,0.6212863355458915,0.6594338902876326,111100.0,106400.0,103100.0,106000.0,27.959773778915405,0.5855802243076219,0.08178835736629282,0.005645838101777676,0.5855802243076219,0.179,-0.082,13.898190000000001,27.956892490386963,0.036,-0.037,0.052,0.0,0.0,-0.004151311703026295,0.9999913573265076,-0.008302647,0.0,0.0,0.0,0.0,0.022,0.0,0.0,0.0,27.969563484191895,3.552000045776367,False,True,False,True,True,False,False
10,0.1,0.036,-0.038,0.06,0.00830262340605259,0.004151311703026295,-0.0013837706064805388,0.999955952167511,-0.0026985826,0.008325331,0.016594362,0.043,0.024,0.282,-0.044,-0.153,-0.043,27.969563484191895,0.03705146536231041,-0.03917401283979416,0.06477079540491104,,,,,,,,0.5487449454489968,0.5440451667048142,0.6207675288014038,0.6169832913710231,106000.0,102400.0,99700.0,103400.0,27.969563484191895,0.18825055313954375,0.061783779659723814,0.004043640802624552,0.18825055313954375,0.118,-0.068,13.67219,27.96647572517395,0.036,-0.037,0.052,0.0,0.0,-0.004151311703026295,0.9999913573265076,-0.008302647,0.0,0.0,0.0,0.0,0.022,0.0,0.0,0.0,27.969563484191895,3.625999927520752,False,True,False,True,True,False,False
11,0.11,0.037,-0.038,0.063,0.009686394594609737,0.004151311703026295,-0.0027675412129610777,0.9999406337738037,-0.0054545486,0.008355843,0.019350545,0.036,0.007,0.314,-0.159,-0.21,-0.019,27.97911548614502,0.03737027198076248,-0.039464306086301804,0.06790086627006531,,,,,,,,0.5520408941786832,0.5331807431143664,0.5700770580605783,0.5733119707026779,103400.0,99700.0,100300.0,101000.0,27.97911548614502,0.15661860074769207,-0.005661097123674372,0.0022583352407110706,0.15661860074769207,0.183,-0.35,13.334190000000001,27.976945877075195,0.036,-0.037,0.052,0.0,0.0,-0.004151311703026295,0.9999913573265076,-0.008302647,0.0,0.0,0.0,0.0,0.027,0.0,0.0,0.0,27.97911548614502,3.625999927520752,False,True,False,True,True,False,False
12,0.12,0.037,-0.038,0.062,0.01107016485184431,0.004151311703026295,-0.0013837706064805388,0.9999291300773621,-0.0026755298,0.0083327675,0.022129847,0.054,-0.016,0.311,-0.273,-0.244,-0.04,27.989549160003662,0.03742770478129387,-0.03921294957399368,0.07110439240932465,,,,,,,,0.5722896162355993,0.5433279926756694,0.5773556115053025,0.595574883649958,100300.0,97400.0,98400.0,99000.0,27.989549160003662,0.629602502479591,0.020660715648126955,0.0036774242771038376,0.629602502479591,0.268,-0.396,12.60619,27.986735582351685,0.036,-0.037,0.052,0.0,0.0,-0.004151311703026295,0.9999913573265076,-0.008302647,0.0,0.0,0.0,0.0,0.032,0.0,0.0,0.0,27.989549160003662,3.625999927520752,False,True,False,True,True,False,False
13,0.13,0.037,-0.039,0.068,0.009686394594609737,0.0027675412129610777,-0.0013837706064805388,0.9999483227729797,-0.0027138283,0.005561633,0.019365638,0.053,-0.013,0.337,-0.278,-0.24,-0.042,28.002022981643677,0.03767316788434982,-0.03926064446568489,0.0776306539773941,,,,,,,,0.5505607690547036,0.5372243839169909,0.5440909437705043,0.5516899366750592,98000.0,95500.0,97400.0,97700.0,28.002022981643677,0.7479667353322652,0.023941405355916687,-0.0003356984817273213,0.7479667353322652,0.165,-0.269,10.940190000000001,28.006721258163452,0.036,-0.037,0.053,0.0,0.0,-0.004151311703026295,0.9999913573265076,-0.008302647,0.0,0.0,0.0,0.0,0.038,0.0,0.0,0.0,28.002022981643677,3.635999917984009,False,True,False,True,True,False,False
14,0.14,0.037,-0.039,0.068,0.009686394594609737,0.0027675412129610777,-0.0013837706064805388,0.9999483227729797,-0.0027138283,0.005561633,0.019365638,0.053,-0.013,0.337,-0.278,-0.24,-0.042,28.002022981643677,0.03767316788434982,-0.03926064446568489,0.0776306539773941,,,,,,,,0.5505607690547036,0.5372243839169909,0.5440909437705043,0.5516899366750592,98000.0,95500.0,97400.0,97700.0,28.002022981643677,0.7479667353322652,0.023941405355916687,-0.0003356984817273213,0.7479667353322652,0.165,-0.269,10.940190000000001,28.006721258163452,0.036,-0.037,0.053,0.0,0.0,-0.004151311703026295,0.9999913573265076,-0.008302647,0.0,0.0,0.0,0.0,0.038,0.0,0.0,0.0,28.002022981643677,3.635999917984009,False,True,False,True,True,False,False
15,0.15,0.037,-0.039,0.076,0.006918853148818016,0.0,-0.0013837706064805388,0.9999750852584839,-0.0027674758,1.914821e-05,0.013837803,0.062,-0.016,0.357,-0.171,-0.302,-0.028,28.023717403411865,0.037479039281606674,-0.03954264894127846,0.08445458114147186,,,,,,,,0.5472037842374304,0.5425650415808346,0.5192187380788892,0.5121995880064087,94900.0,92600.0,94600.0,94300.0,28.023717403411865,0.7572137026016632,0.013321126115815976,-0.00030518043793392844,0.7572137026016632,0.013,-0.133,10.19419,28.027535676956177,0.036,-0.037,0.054,0.0,0.0,-0.004151311703026295,0.9999913573265076,-0.008302647,0.0,0.0,0.0,0.0,0.051,0.0,0.0,0.001,28.023717403411865,3.635999917984009,False,True,False,True,True,False,False
16,0.16,0.037,-0.039,0.076,0.006918853148818016,0.0,-0.0013837706064805388,0.9999750852584839,-0.0027674758,1.914821e-05,0.013837803,0.062,-0.016,0.357,-0.171,-0.302,-0.028,28.023717403411865,0.037479039281606674,-0.03954264894127846,0.08445458114147186,,,,,,,,0.5472037842374304,0.5425650415808346,0.5192187380788892,0.5121995880064087,94900.0,92600.0,94600.0,94300.0,28.023717403411865,0.7572137026016632,0.013321126115815976,-0.00030518043793392844,0.7572137026016632,0.013,-0.133,10.19419,28.027535676956177,0.036,-0.037,0.054,0.0,0.0,-0.004151311703026295,0.9999913573265076,-0.008302647,0.0,0.0,0.0,0.0,0.051,0.0,0.0,0.001,28.023717403411865,3.635999917984009,False,True,False,True,True,False,False
17,0.17,0.037,-0.039,0.08,0.004151311703026295,-0.004151311703026295,-0.0027675412129610777,0.9999789595603943,-0.0055696527,-0.008279566,0.008325808,0.048,-0.006,0.353,-0.293,-0.224,-0.032,28.039559364318848,0.03772735595703125,-0.03956037759780884,0.08758481591939926,,,,,,,,0.4968795300221256,0.5203173876554513,0.5973144121461814,0.5763179980163271,92900.0,92300.0,92600.0,91700.0,28.039559364318848,0.25981536583505,0.01739528496223392,0.0033875028610666057,0.25981536583505,0.019,-0.118,9.674190000000001,28.040889501571655,0.036,-0.037,0.055,0.0,0.0,-0.004151311703026295,0.9999913573265076,-0.008302647,0.0,0.0,0.0,0.0,0.067,0.0,0.0,0.001,28.039559364318848,3.635999917984009,False,True,False,True,True,False,False
18,0.18,0.037,-0.039,0.085,0.0027675412129610777,-0.004151311703026295,-0.0027675412129610777,0.9999837279319763,-0.00555819,-0.008287265,0.00555819,0.062,-0.019,0.354,-0.292,-0.234,-0.04,28.049659729003906,0.037835508584976196,-0.03962409123778343,0.09079605340957642,,,,,,,,0.5418783855954833,0.5297932402532998,0.5517662317845426,0.5687953002212558,90900.0,90900.0,93200.0,91200.0,28.049659729003906,0.21591515983825438,0.00686655985351339,-0.0022888532845044634,0.21591515983825438,-0.006,-0.127,9.33319,28.047014236450195,0.036,-0.037,0.055,0.0,0.0,-0.004151311703026295,0.9999913573265076,-0.008302647,0.0,0.0,0.0,0.0,0.075,0.0,0.0,0.001,28.049659729003906,3.621000051498413,False,True,False,True,True,False,False
19,0.19,0.037,-0.039,0.089,0.0013837706064805388,-0.004151311703026295,-0.0027675412129610777,0.9999865889549255,-0.0055467165,-0.008294947,0.0027905817,0.071,-0.022,0.348,-0.217,-0.258,-0.027,28.059783220291138,0.03786703571677208,-0.03965165093541145,0.09388190507888794,,,,,,,,0.5642786297398337,0.5643701838712138,0.5495994506752118,0.5449912260624094,90100.0,90100.0,92000.0,92900.0,28.059783220291138,0.3050278477149615,0.011154345006485085,0.0007171740291447319,0.3050278477149615,-0.044,-0.095,9.05319,28.056731462478638,0.036,-0.037,0.056,0.0,0.0,-0.004151311703026295,0.9999913573265076,-0.008302647,0.0,0.0,0.0,0.0,0.084,0.0,0.0,0.001,28.059783220291138,3.621000051498413,False,True,False,True,True,False,False
20,0.2,0.037,-0.039,0.092,0.0,-0.005535082425922155,-0.0027675412129610777,0.9999808669090271,-0.005535344,-0.01107018,3.0639014e-05,0.068,-0.021,0.34,-0.12,-0.289,-0.05,28.069827556610107,0.038106564432382584,-0.039730243384838104,0.09693723171949387,,,,,,,,0.5748531319142443,0.5750057221332112,0.5538872358281834,0.5688715953307393,91200.0,90100.0,92600.0,90900.0,28.069827556610107,0.28828870069428547,0.05166704814221408,-0.0014038300144960708,0.28828870069428547,-0.054,-0.072,8.943190000000001,28.066831827163696,0.036,-0.037,0.057,0.0,0.0,-0.004151311703026295,0.9999913573265076,-0.008302647,0.0,0.0,0.0,0.0,0.094,0.0,0.0,0.001,28.069827556610107,3.621000051498413,False,True,False,True,True,False,False
21,0.21,0.037,-0.039,0.092,0.0,-0.005535082425922155,-0.0027675412129610777,0.9999808669090271,-0.005535344,-0.01107018,3.0639014e-05,0.068,-0.021,0.34,-0.12,-0.289,-0.05,28.069827556610107,0.038106564432382584,-0.039730243384838104,0.09693723171949387,,,,,,,,0.5748531319142443,0.5750057221332112,0.5538872358281834,0.5688715953307393,91200.0,90100.0,92600.0,90900.0,28.069827556610107,0.28828870069428547,0.05166704814221408,-0.0014038300144960708,0.28828870069428547,-0.054,-0.072,8.943190000000001,28.066831827163696,0.036,-0.037,0.057,0.0,0.0,-0.004151311703026295,0.9999913573265076,-0.008302647,0.0,0.0,0.0,0.0,0.094,0.0,0.0,0.001,28.069827556610107,3.621000051498413,False,True,False,True,True,False,False
22,0.22,0.038,-0.039,0.092,-0.0,-0.00830262340605259,-0.0027675412129610777,0.9999616742134094,-0.0055356617,-0.016605372,4.5962042e-05,0.057,-0.023,0.31,-0.115,-0.314,-0.024,28.083089113235474,0.03800703585147858,-0.03991733863949776,0.10271488130092621,,,,,,,,0.578942549782559,0.6282597085526818,0.6384222171358815,0.5870298313878081,91200.0,92900.0,92300.0,90600.0,28.083089113235474,0.69062333104448,-0.03131151293202106,-0.0013580529488059815,0.69062333104448,-0.069,0.023,8.94119,28.086999654769897,0.036,-0.037,0.058,0.0,0.0,-0.004151311703026295,0.9999913573265076,-0.008302647,0.0,0.0,0.0,0.0,0.104,0.0,0.0,0.002,28.083089113235474,3.5840001106262207,False,True,False,True,True,False,False
23,0.23,0.038,-0.039,0.101,-0.0013837706064805388,-0.009686394594609737,-0.0027675412129610777,0.9999483227729797,-0.005509051,-0.01938066,-0.0027142963,0.066,-0.025,0.307,-0.19,-0.02,-0.025,28.099480867385864,0.037864964455366135,-0.040199629962444305,0.10574692487716675,,,,,,,,0.6432135500114443,0.5593804837109941,0.5915159838254368,0.6780956740672923,94000.0,93800.0,94600.0,93200.0,28.099480867385864,0.7024032959487296,0.03556878004119936,-0.00123598077363241,0.7024032959487296,-0.15,-0.067,8.86719,28.100261211395264,0.036,-0.037,0.06,0.0,0.0,-0.004151311703026295,0.9999913573265076,-0.008302647,0.0,0.0,0.0,0.0,0.125,0.0,0.0,0.002,28.099480867385864,3.5840001106262207,False,True,False,True,True,False,False
24,0.24,0.038,-0.039,0.104,-0.0027675412129610777,-0.01107016485184431,-0.004151311703026295,0.9999262690544128,-0.008242855,-0.02216349,-0.005444127,0.061,-0.026,0.302,-0.153,0.014,-0.017,28.109658002853394,0.03799011558294296,-0.04010314494371414,0.10825342684984207,,,,,,,,0.6452735179674983,0.617593652246891,0.6122835126268407,0.6425879301136798,96200.0,92600.0,95200.0,96200.0,28.109658002853394,0.2212405584802014,0.09262226291294728,-0.0025177386129549098,0.2212405584802014,-0.232,-0.05,9.02519,28.10708713531494,0.036,-0.037,0.062,0.0,0.0,-0.004151311703026295,0.9999913573265076,-0.008302647,0.0,0.0,0.0,0.0,0.137,0.0,0.0,0.002,28.109658002853394,3.5840001106262207,False,True,False,True,True,False,False
25,0.25,0.037,-0.039,0.101,-0.0027675412129610777,-0.01107016485184431,-0.004151311703026295,0.9999262690544128,-0.008242855,-0.02216349,-0.005444127,0.055,-0.022,0.284,-0.174,-0.125,-0.003,28.12060785293579,0.03802880644798279,-0.040181562304496765,0.11093289405107498,,,,,,,,0.6254215304798962,0.6831921873807889,0.7105363546196689,0.6491645685511559,97700.0,95200.0,95200.0,98000.0,28.12060785293579,0.13717860685130084,0.05474937056534676,-0.0011291676203555353,0.13717860685130084,-0.236,0.021,9.289190000000001,28.116652965545654,0.036,-0.037,0.063,0.0,0.0,-0.004151311703026295,0.9999913573265076,-0.008302647,0.0,0.0,0.0,0.0,0.148,0.0,0.0,0.003,28.12060785293579,3.5840001106262207,False,True,False,True,True,False,False
26,0.26,0.038,-0.04,0.107,-0.0027675412129610777,-0.01107016485184431,-0.0027675412129610777,0.9999310374259949,-0.0054747975,-0.022155933,-0.0054747975,0.05,-0.038,0.294,-0.16,-0.101,-0.05,28.12977695465088,0.03799191862344742,-0.04025257006287575,0.11367993801832199,,,,,,,,0.6619058518348974,0.6708476386663614,0.6488441290913253,0.6670634012359807,96500.0,98700.0,99700.0,98000.0,28.12977695465088,0.7732967116807813,-0.045807583733882655,-0.00025940337224383917,0.7732967116807813,-0.184,0.017,9.45419,28.126830101013184,0.036,-0.037,0.065,0.0,0.0,-0.004151311703026295,0.9999913573265076,-0.008302647,0.0,0.0,0.0,0.0,0.161,0.0,0.0,0.003,28.12977695465088,3.552000045776367,False,True,False,True,True,False,False
27,0.27,0.037,-0.04,0.111,-0.004151311703026295,-0.012453935109078884,-0.004151311703026295,0.9999052286148071,-0.008201079,-0.024942562,-0.008201079,0.041,-0.035,0.299,-0.157,-0.041,-0.02,28.139575719833374,0.037995465099811554,-0.04024609550833702,0.11637642234563828,,,,,,,,0.674998092622263,0.6356603341725795,0.6482642862592508,0.6960250247959106,99000.0,99300.0,99700.0,99700.0,28.139575719833374,0.5156328679331655,0.027924010070954453,-0.0063935301747158006,0.5156328679331655,-0.158,0.039,9.62719,28.13777995109558,0.036,-0.037,0.066,0.0,0.0,-0.004151311703026295,0.9999913573265076,-0.008302647,0.0,0.0,0.0,0.0,0.173,0.0,0.0,0.003,28.139575719833374,3.552000045776367,False,True,False,True,True,False,False
28,0.28,0.037,-0.04,0.115,-0.004151311703026295,-0.012453935109078884,-0.0027675412129610777,0.9999099969863892,-0.0054328986,-0.024931189,-0.008235595,0.035,-0.05,0.305,-0.179,0.082,0.005,28.14966893196106,0.03785707801580429,-0.04034176096320152,0.11928006261587143,,,,,,,,0.6845349813076982,0.638849469748989,0.6582894636453803,0.691828793774319,100700.0,101000.0,101000.0,100700.0,28.14966893196106,0.9197222858014801,0.016571297779812314,-0.0011749446860456244,0.9197222858014801,-0.19,0.078,9.79819,28.14694905281067,0.036,-0.037,0.068,0.0,0.0,-0.004151311703026295,0.9999913573265076,-0.008302647,0.0,0.0,0.0,0.0,0.186,0.0,0.0,0.003,28.14966893196106,3.552000045776367,False,True,False,True,True,False,False
29,0.29,0.037,-0.04,0.115,-0.004151311703026295,-0.012453935109078884,-0.0027675412129610777,0.9999099969863892,-0.0054328986,-0.024931189,-0.008235595,0.035,-0.05,0.305,-0.179,0.082,0.005,28.14966893196106,0.03785707801580429,-0.04034176096320152,0.11928006261587143,,,,,,,,0.6845349813076982,0.638849469748989,0.6582894636453803,0.691828793774319,100700.0,101000.0,101000.0,100700.0,28.14966893196106,0.9197222858014801,0.016571297779812314,-0.0011749446860456244,0.9197222858014801,-0.19,0.078,9.79819,28.14694905281067,0.036,-0.037,0.068,0.0,0.0,-0.004151311703026295,0.9999913573265076,-0.008302647,0.0,0.0,0.0,0.0,0.186,0.0,0.0,0.003,28.14966893196106,3.552000045776367,False,True,False,True,True,False,False
30,0.3,0.037,-0.04,0.118,-0.005535082425922155,-0.012453935109078884,-0.004151311703026295,0.9998984932899475,-0.008166547,-0.024953889,-0.010969276,0.033,-0.043,0.311,-0.245,0.159,0.007,28.166768789291382,0.037777602672576904,-0.04017255827784538,0.12487537413835526,,,,,,,,0.6759441519798581,0.6147249561303121,0.6739604791332876,0.7235828183413443,101000.0,100700.0,100300.0,103400.0,28.166768789291382,0.04594491493095293,0.04060425726710918,0.003448538948653391,0.04594491493095293,-0.267,0.071,10.41919,28.16684103012085,0.036,-0.037,0.07,0.0,0.0,-0.004151311703026295,0.9999913573265076,-0.008302647,0.0,0.0,0.0,0.0,0.199,0.0,0.0,0.004,28.166768789291382,3.5360000133514404,False,True,False,True,True,False,False
31,0.31,0.037,-0.04,0.122,-0.00830262340605259,-0.012453935109078884,-0.004151311703026295,0.9998793601989746,-0.008097435,-0.024976395,-0.01650574,0.011,-0.033,0.314,-0.176,0.156,-0.027,28.18252658843994,0.037569351494312286,-0.04018080234527588,0.12805035710334778,,,,,,,,0.6970016021972991,0.6970931563286793,0.69062333104448,0.7037766079194324,103800.0,100700.0,104500.0,106800.0,28.18252658843994,0.18873884184023804,0.062333104448004883,0.00018310826276035706,0.18873884184023804,-0.303,0.048,10.61819,28.183940887451172,0.036,-0.037,0.074,0.0,0.0,-0.004151311703026295,0.9999913573265076,-0.008302647,0.0,0.0,0.0,0.0,0.227,0.0,0.0,0.004,28.18252658843994,3.5360000133514404,False,True,False,True,True,False,False
32,0.32,0.037,-0.04,0.126,-0.009686394594609737,-0.01107016485184431,-0.004151311703026295,0.9998831748962402,-0.008089279,-0.022219993,-0.019284569,0.007,-0.022,0.33,-0.026,0.174,-0.017,28.19020962715149,0.03746594861149788,-0.04001341387629509,0.1310068964958191,,,,,,,,0.719478141451133,0.694392309452964,0.6592050049591821,0.6941786831464103,104200.0,103400.0,105300.0,106400.0,28.19020962715149,0.4664835584039063,-0.015747310597390707,-0.0032654306858930344,0.4664835584039063,-0.248,0.144,10.74719,28.186143398284912,0.036,-0.037,0.077,0.0,0.0,-0.004151311703026295,0.9999913573265076,-0.008302647,0.0,0.0,0.0,0.0,0.241,0.0,0.0,0.005,28.19020962715149,3.5360000133514404,False,True,False,True,True,False,False
33,0.33,0.037,-0.04,0.13,-0.009686394594609737,-0.009686394594609737,-0.004151311703026295,0.9998975396156311,-0.008115746,-0.019452453,-0.01929523,0.007,-0.022,0.345,0.006,0.199,0.005,28.20026659965515,0.03732239827513695,-0.03993036597967148,0.13429400324821472,,,,,,,,0.7032578011749447,0.6605020218204013,0.6764934767681392,0.7147936217288472,106000.0,103400.0,104500.0,105300.0,28.20026659965515,0.10586709391927977,0.026489662012664988,-0.004440375371938659,0.10586709391927977,-0.243,0.208,11.01019,28.19969868659973,0.036,-0.037,0.079,0.0,0.0,-0.004151311703026295,0.9999913573265076,-0.008302647,0.0,0.0,0.0,0.0,0.255,0.0,0.0,0.005,28.20026659965515,3.5360000133514404,False,True,False,True,True,False,False
34,0.34,0.037,-0.039,0.127,-0.01107016485184431,-0.009686394594609737,-0.004151311703026295,0.9998831748962402,-0.008088814,-0.019463668,-0.022063289,0.01,-0.006,0.343,-0.065,0.222,0.0,28.209500551223755,0.03716868907213211,-0.03975355625152588,0.13776588439941406,,,,,,,,0.7093614099336233,0.6650797283894102,0.727519645990692,0.7742427710383765,106000.0,103400.0,105300.0,106800.0,28.209500551223755,0.32428473334859237,0.021850919356069275,0.0007324330510414282,0.32428473334859237,-0.21,0.231,11.200190000000001,28.20738172531128,0.036,-0.037,0.082,0.0,0.0,-0.004151311703026295,0.9999913573265076,-0.008302647,0.0,0.0,0.0,0.0,0.27,0.0,0.0,0.005,28.209500551223755,3.5409998893737793,False,True,False,True,True,False,False
35,0.35000000000000003,0.037,-0.039,0.133,-0.01107016485184431,-0.00830262340605259,-0.004151311703026295,0.9998956322669983,-0.008119156,-0.016696204,-0.022073954,0.009,0.0,0.372,-0.039,0.124,0.0,28.21953845024109,0.0369412861764431,-0.03962205722928047,0.14147260785102844,,,,,,,,0.6747844663157092,0.6942549782558938,0.7200427252613107,0.7033798733501183,106400.0,103800.0,106000.0,109100.0,28.21953845024109,0.0775921263447013,0.048554207675288015,-0.0011291676203555353,0.0775921263447013,-0.222,0.217,11.26019,28.21743869781494,0.036,-0.037,0.084,0.0,0.0,-0.004151311703026295,0.9999913573265076,-0.008302647,0.0,0.0,0.0,0.0,0.284,0.0,0.0,0.006,28.21953845024109,3.5409998893737793,False,True,False,True,True,False,False
36,0.36,0.036,-0.038,0.139,-0.012453935109078884,-0.006918853148818016,-0.004151311703026295,0.9998899102210999,-0.008130256,-0.013940034,-0.024852658,0.011,0.024,0.393,0.074,-0.011,0.008,28.229642629623413,0.036758869886398315,-0.039443161338567734,0.14524714648723602,,,,,,,,0.6538643472953384,0.7035172045471886,0.7202716105897612,0.6698863202868696,105600.0,103400.0,106800.0,107900.0,28.229642629623413,0.7199511711299306,-0.010101472495613032,0.0006103608758678569,0.7199511711299306,-0.207,0.207,11.32019,28.226672649383545,0.036,-0.037,0.087,0.0,0.0,-0.004151311703026295,0.9999913573265076,-0.008302647,0.0,0.0,0.0,0.0,0.299,0.0,0.0,0.006,28.229642629623413,3.5409998893737793,False,True,False,True,True,False,False
37,0.37,0.036,-0.038,0.144,-0.012453935109078884,-0.006918853148818016,-0.004151311703026295,0.9998899102210999,-0.008130256,-0.013940034,-0.024852658,0.0,0.023,0.412,0.233,0.04,-0.007,28.239800453186035,0.036548469215631485,-0.03929201886057854,0.14910027384757996,,,,,,,,0.698161287861448,0.7001144426642252,0.6532082093537804,0.6628519111924925,104200.0,105300.0,107500.0,106400.0,28.239800453186035,0.8435187304493782,-0.060318913557640956,-0.0003509575036240177,0.8435187304493782,-0.154,0.269,11.30819,28.23671054840088,0.036,-0.037,0.09,0.0,0.0,-0.004151311703026295,0.9999913573265076,-0.008302647,0.0,0.0,0.0,0.0,0.313,0.0,0.0,0.006,28.239800453186035,3.5409998893737793,False,True,False,True,True,False,False
38,0.38,0.036,-0.038,0.148,-0.012453935109078884,-0.006918853148818016,-0.004151311703026295,0.9998899102210999,-0.008130256,-0.013940034,-0.024852658,0.006,0.031,0.429,0.318,0.104,0.027,28.249688148498535,0.03644728660583496,-0.039008717983961105,0.15294063091278076,,,,,,,,0.7149462119478142,0.6601052872510872,0.6401464866102082,0.6821087968261235,104500.0,106400.0,106000.0,104500.0,28.249688148498535,0.7208056763561456,0.005127031357289998,-0.0034790569924467844,0.7208056763561456,-0.072,0.381,11.37719,28.246814727783203,0.036,-0.037,0.093,0.0,0.0,-0.004151311703026295,0.9999913573265076,-0.008302647,0.0,0.0,0.0,0.0,0.328,0.0,0.0,0.006,28.249688148498535,3.552000045776367,False,True,False,True,True,False,False
39,0.39,0.036,-0.038,0.148,-0.009686394594609737,-0.006918853148818016,-0.004151311703026295,0.9999205470085144,-0.008168808,-0.013917478,-0.01931688,0.002,0.025,0.425,0.286,0.244,0.021,28.261898040771484,0.036789268255233765,-0.03875481337308884,0.15712188184261322,,,,,,,,0.7387045090409705,0.644586861982147,0.6599374380102235,0.7450217441062028,106400.0,106400.0,104900.0,104900.0,28.261898040771484,0.6309300373846036,0.03376821545738918,0.00187685969329366,0.6309300373846036,-0.168,0.407,11.35819,28.256972551345825,0.036,-0.037,0.097,0.0,0.0,-0.004151311703026295,0.9999913573265076,-0.008302647,0.0,0.0,0.0,0.0,0.343,0.0,0.0,0.007,28.261898040771484,3.552000045776367,False,True,False,True,True,False,False
40,0.4,0.036,-0.038,0.155,-0.009686394594609737,-0.005535082425922155,-0.004151311703026295,0.9999291300773621,-0.008195406,-0.011150034,-0.019327866,0.001,0.041,0.445,0.169,0.211,0.013,28.270020723342896,0.036104556173086166,-0.038482118397951126,0.1612730473279953,,,,,,,,0.6555733577477684,0.6238651102464332,0.7170366979476616,0.7452048523689632,106800.0,103400.0,104900.0,106400.0,28.270020723342896,0.4486457618066682,0.06330968184939345,0.005111772335393301,0.4486457618066682,-0.238,0.315,11.21519,28.266860246658325,0.036,-0.037,0.1,0.0,0.0,-0.004151311703026295,0.9999913573265076,-0.008302647,0.0,0.0,0.0,0.0,0.358,0.0,0.0,0.007,28.270020723342896,3.552000045776367,False,True,False,True,True,False,False
41,0.41000000000000003,0.036,-0.037,0.16,-0.00830262340605259,-0.004151311703026295,-0.004151311703026295,0.9999483227729797,-0.008233642,-0.008371226,-0.016571261,-0.002,0.045,0.46,0.121,0.143,0.008,28.281790733337402,0.03582875430583954,-0.038191623985767365,0.16566818952560425,,,,,,,,0.6593270771343557,0.645288776989395,0.7007095445181963,0.7160296025024796,106000.0,104200.0,104500.0,106400.0,28.281790733337402,0.47046616311894407,0.01817349507896544,4.5777065690089265e-05,0.47046616311894407,-0.193,0.181,11.05419,28.279070138931274,0.036,-0.037,0.104,0.0,0.0,-0.004151311703026295,0.9999913573265076,-0.008302647,0.0,0.0,0.0,0.0,0.372,0.0,0.0,0.007,28.281790733337402,3.552000045776367,False,True,False,True,True,False,False
42,0.42,0.035,-0.037,0.165,-0.006918853148818016,-0.0027675412129610777,-0.004151311703026295,0.999963641166687,-0.008264249,-0.005592355,-0.013814881,0.001,0.034,0.472,0.233,0.126,0.029,28.289604902267456,0.035571977496147156,-0.037876907736063004,0.1702566146850586,,,,,,,,0.7294880598153658,0.6843213550011444,0.6388189517051956,0.6666514076447699,104500.0,103400.0,106400.0,106400.0,28.289604902267456,0.1697871366445411,-0.016357671473258565,0.0009002822919050889,0.1697871366445411,-0.078,0.091,10.97819,28.287192821502686,0.036,-0.037,0.108,0.0,0.0,-0.004151311703026295,0.9999913573265076,-0.008302647,0.0,0.0,0.0,0.0,0.387,0.0,0.0,0.008,28.289604902267456,3.568000078201294,False,True,False,True,True,False,False
43,0.43,0.035,-0.037,0.163,-0.006918853148818016,-0.0027675412129610777,-0.004151311703026295,0.999963641166687,-0.008264249,-0.005592355,-0.013814881,-0.004,0.041,0.471,0.334,0.106,0.024,28.299640893936157,0.03538796305656433,-0.03755081444978714,0.17487792670726776,,,,,,,,0.7393911650263219,0.7096971084153506,0.6737468528267339,0.6912336919203479,106400.0,104900.0,105300.0,105300.0,28.299640893936157,0.03483634699015793,0.026825360494392308,0.003723201342793927,0.03483634699015793,-0.006,0.1,11.023190000000001,28.298962831497192,0.036,-0.037,0.111,0.0,0.0,-0.004151311703026295,0.9999913573265076,-0.008302647,0.0,0.0,0.0,0.0,0.401,0.0,0.0,0.008,28.299640893936157,3.568000078201294,False,True,False,True,True,False,False
44,0.44,0.035,-0.036,0.171,-0.005535082425922155,-0.0027675412129610777,-0.004151311703026295,0.9999722242355347,-0.008271978,-0.0055809133,-0.011047277,-0.004,0.061,0.494,0.27,0.108,0.026,28.30940842628479,0.03511349856853485,-0.03734735772013664,0.17978298664093018,,,,,,,,0.6763408865491722,0.639505607690547,0.7040817883573663,0.7275501640344854,106400.0,106000.0,105300.0,103100.0,28.30940842628479,0.1014877546349279,-0.012802319371328297,0.0026245517662317848,0.1014877546349279,0.012,0.138,11.02219,28.306777000427246,0.036,-0.037,0.116,0.0,0.0,-0.004151311703026295,0.9999913573265076,-0.008302647,0.0,0.0,0.0,0.0,0.416,0.0,0.0,0.008,28.30940842628479,3.568000078201294,False,True,False,True,True,False,False
45,0.45,0.035,-0.036,0.177,-0.004151311703026295,-0.0013837706064805388,-0.004151311703026295,0.9999818205833435,-0.008291111,-0.0028019615,-0.008291111,-0.005,0.052,0.511,0.186,0.179,0.029,28.320459842681885,0.03502805903553963,-0.036900926381349564,0.1844576746225357,,,,,,,,0.6805828946364538,0.6314183260852979,0.6828107118333715,0.7148241397726406,106400.0,105300.0,106000.0,106400.0,28.320459842681885,0.8393682764934768,-0.006897077897306782,0.0016174563210498208,0.8393682764934768,0.01,0.142,10.96319,28.316812992095947,0.036,-0.037,0.12,0.0,0.0,-0.004151311703026295,0.9999913573265076,-0.008302647,0.0,0.0,0.0,0.0,0.43,0.0,0.0,0.009,28.320459842681885,3.568000078201294,False,True,False,True,True,False,False
46,0.46,0.034,-0.035,0.183,-0.0027675412129610777,-0.0013837706064805388,-0.004151311703026295,0.9999865889549255,-0.00829498,-0.0027904857,-0.005523569,-0.007,0.061,0.525,0.177,0.193,0.019,28.330811500549316,0.03468213975429535,-0.036493610590696335,0.1893913596868515,,,,,,,,0.6766155489433128,0.6264744029907683,0.6733806363012131,0.7146715495536736,106400.0,103100.0,105600.0,106000.0,28.330811500549316,0.420157167925536,0.04740978103303578,0.004577706569008927,0.420157167925536,0.028,0.059,10.86219,28.32658052444458,0.036,-0.037,0.124,0.0,0.0,-0.004151311703026295,0.9999913573265076,-0.008302647,0.0,0.0,0.0,0.0,0.444,0.0,0.0,0.009,28.330811500549316,3.562999963760376,False,True,False,True,True,False,False
47,0.47000000000000003,0.034,-0.035,0.188,-0.0013837706064805388,-0.0,-0.004151311703026295,0.9999904036521912,-0.008302638,-1.1488926e-05,-0.0027675182,-0.007,0.05,0.536,0.236,0.138,0.018,28.339720249176025,0.034305255860090256,-0.0362754687666893,0.19459590315818787,,,,,,,,0.6954909590295262,0.667902647440299,0.6499885557335775,0.6650644693675135,106000.0,103100.0,105300.0,105600.0,28.339720249176025,0.23610284580758373,0.05255207141222248,0.003082322423132677,0.23610284580758373,0.043,0.023,10.924190000000001,28.337631940841675,0.036,-0.037,0.128,0.0,0.0,-0.004151311703026295,0.9999913573265076,-0.008302647,0.0,0.0,0.0,0.0,0.458,0.0,0.0,0.009,28.339720249176025,3.562999963760376,False,True,False,True,True,False,False
48,0.48,0.034,-0.035,0.189,-0.0013837706064805388,0.0013837706064805388,-0.0027675412129610777,0.9999942779541016,-0.0055389297,0.0027598697,-0.0027751988,-0.002,0.061,0.524,0.283,0.102,0.015,28.349761486053467,0.03428204357624054,-0.03593457490205765,0.1997879594564438,,,,,,,,0.7332265201800564,0.6795147631036851,0.6688334477759975,0.7108262760357061,106000.0,103400.0,104500.0,106000.0,28.349761486053467,0.4233157854581521,0.029999237048905166,0.0020752269779507134,0.4233157854581521,0.067,0.069,10.895190000000001,28.347983598709106,0.036,-0.037,0.133,0.0,0.0,-0.004151311703026295,0.9999913573265076,-0.008302647,0.0,0.0,0.0,0.0,0.471,0.0,0.0,0.009,28.349761486053467,3.562999963760376,False,True,False,True,True,False,False
49,0.49,0.034,-0.034,0.196,-0.0013837706064805388,0.0013837706064805388,-0.0027675412129610777,0.9999942779541016,-0.0055389297,0.0027598697,-0.0027751988,-0.002,0.074,0.542,0.271,0.087,0.034,28.359690189361572,0.034080870449543,-0.03563592582941055,0.20515994727611542,,,,,,,,0.6865644312199588,0.6547951476310369,0.6950179293507286,0.7013962005035477,106000.0,104200.0,104500.0,106400.0,28.359690189361572,0.7142595559624628,0.010101472495613032,0.00392156862745098,0.7142595559624628,0.05,0.064,10.78719,28.356892347335815,0.036,-0.037,0.138,0.0,0.0,-0.004151311703026295,0.9999913573265076,-0.008302647,0.0,0.0,0.0,0.0,0.484,0.0,0.0,0.01,28.359690189361572,3.562999963760376,False,True,False,True,True,False,False
50,0.5,0.034,-0.034,0.203,0.0,0.0013837706064805388,-0.0027675412129610777,0.999995231628418,-0.0055351052,0.0027675314,-7.659313e-06,-0.005,0.078,0.557,0.253,0.067,0.021,28.371669054031372,0.03369986265897751,-0.03532528877258301,0.21044296026229858,,,,,,,,0.6651712825207904,0.6528419928282597,0.6946822308690013,0.6923628595407034,106000.0,103100.0,106000.0,105300.0,28.371669054031372,0.21931792172121767,0.02119478141451133,0.004974441138323033,0.21931792172121767,0.029,0.027,10.690190000000001,28.366933584213257,0.036,-0.037,0.143,0.0,0.0,-0.004151311703026295,0.9999913573265076,-0.008302647,0.0,0.0,0.0,0.0,0.498,0.0,0.0,0.01,28.371669054031372,3.568000078201294,False,True,False,True,True,False,False
51,0.51,0.033,-0.034,0.209,0.0013837706064805388,0.0013837706064805388,-0.0027675412129610777,0.9999942779541016,-0.0055312705,0.002775188,0.0027598804,-0.008,0.073,0.567,0.286,0.099,0.026,28.379331827163696,0.033581554889678955,-0.03488302603363991,0.21577975153923035,,,,,,,,0.6996414129854276,0.6621957732509346,0.6549324788281071,0.6715037766079194,106400.0,103800.0,106400.0,105300.0,28.379331827163696,0.12474250400549325,0.02197299153124285,0.004257267109178301,0.12474250400549325,0.071,-0.048,10.67919,28.376862287521362,0.036,-0.037,0.147,0.0,0.0,-0.004151311703026295,0.9999913573265076,-0.008302647,0.0,0.0,0.0,0.0,0.51,0.0,0.0,0.01,28.379331827163696,3.568000078201294,False,True,False,True,True,False,False
52,0.52,0.033,-0.033,0.206,0.0027675412129610777,0.0027675412129610777,-0.0027675412129610777,0.9999884963035583,-0.0055198134,0.0055503654,0.0055198134,-0.004,0.074,0.557,0.304,0.102,0.027,28.3897967338562,0.033415213227272034,-0.03446304425597191,0.22117187082767487,,,,,,,,0.7448844129091325,0.6881513694972152,0.6837872892347601,0.7123826962691692,106400.0,104200.0,105300.0,104200.0,28.3897967338562,0.05096513313496605,0.04657053482871748,0.0029602502479591057,0.05096513313496605,0.106,-0.079,10.748190000000001,28.388841152191162,0.036,-0.037,0.153,0.0,0.0,-0.004151311703026295,0.9999913573265076,-0.008302647,0.0,0.0,0.0,0.0,0.522,0.0,0.0,0.011,28.3897967338562,3.568000078201294,False,True,False,True,True,False,False
53,0.53,0.033,-0.033,0.216,0.005535082425922155,0.0027675412129610777,-0.0027675412129610777,0.9999769926071167,-0.005504431,0.0055656214,0.011054989,-0.004,0.07,0.584,0.257,0.11,-0.002,28.399749517440796,0.03315669670701027,-0.034424398094415665,0.22707615792751312,,,,,,,,0.6899977111467155,0.6422064545662624,0.6701304646372167,0.7149919890135042,106800.0,105300.0,104500.0,104900.0,28.399749517440796,0.07302967879758908,0.04190127412832837,0.009048599984740979,0.07302967879758908,0.057,-0.047,10.72419,28.396503925323486,0.036,-0.037,0.158,0.0,0.0,-0.004151311703026295,0.9999913573265076,-0.008302647,0.0,0.0,0.0,0.0,0.534,0.0,0.0,0.011,28.399749517440796,3.568000078201294,False,True,False,True,True,False,False
54,0.54,0.033,-0.033,0.216,0.005535082425922155,0.0027675412129610777,-0.0027675412129610777,0.9999769926071167,-0.005504431,0.0055656214,0.011054989,-0.004,0.07,0.584,0.257,0.11,-0.002,28.399749517440796,0.03315669670701027,-0.034424398094415665,0.22707615792751312,,,,,,,,0.6899977111467155,0.6422064545662624,0.6701304646372167,0.7149919890135042,106800.0,105300.0,104500.0,104900.0,28.399749517440796,0.07302967879758908,0.04190127412832837,0.009048599984740979,0.07302967879758908,0.057,-0.047,10.72419,28.396503925323486,0.036,-0.037,0.158,0.0,0.0,-0.004151311703026295,0.9999913573265076,-0.008302647,0.0,0.0,0.0,0.0,0.534,0.0,0.0,0.011,28.399749517440796,3.568000078201294,False,True,False,True,True,False,False
55,0.55,0.033,-0.033,0.224,0.005535082425922155,0.004151311703026295,-0.0027675412129610777,0.9999722242355347,-0.005489191,0.008333125,0.011047488,-0.001,0.074,0.602,0.216,0.06,0.021,28.412888288497925,0.03311559930443764,-0.03372786566615105,0.23856782913208008,,,,,,,,0.6744182497901885,0.640512703135729,0.6646524757763027,0.6769512474250401,106400.0,104500.0,105300.0,104200.0,28.412888288497925,0.02102693217364767,0.0,0.0054169527733272296,0.02102693217364767,0.075,-0.143,10.66219,28.416921615600586,0.036,-0.037,0.163,0.0,0.0,-0.004151311703026295,0.9999913573265076,-0.008302647,0.0,0.0,0.0,0.0,0.545,0.0,0.0,0.011,28.412888288497925,3.572999954223633,False,True,False,True,True,False,False
56,0.56,0.033,-0.033,0.224,0.005535082425922155,0.004151311703026295,-0.0027675412129610777,0.9999722242355347,-0.005489191,0.008333125,0.011047488,-0.001,0.074,0.602,0.216,0.06,0.021,28.412888288497925,0.03311559930443764,-0.03372786566615105,0.23856782913208008,,,,,,,,0.6744182497901885,0.640512703135729,0.6646524757763027,0.6769512474250401,106400.0,104500.0,105300.0,104200.0,28.412888288497925,0.02102693217364767,0.0,0.0054169527733272296,0.02102693217364767,0.075,-0.143,10.66219,28.416921615600586,0.036,-0.037,0.163,0.0,0.0,-0.004151311703026295,0.9999913573265076,-0.008302647,0.0,0.0,0.0,0.0,0.545,0.0,0.0,0.011,28.412888288497925,3.572999954223633,False,True,False,True,True,False,False
57,0.5700000000000001,0.032,-0.032,0.237,0.00830262340605259,0.004151311703026295,-0.0013837706064805388,0.999955952167511,-0.0026985826,0.008325331,0.016594362,0.001,0.064,0.621,0.148,0.078,0.012,28.433619737625122,0.03267578408122063,-0.033197466284036636,0.25030770897865295,,,,,,,,0.6746776531624323,0.6146486610208286,0.642023346303502,0.6802624551766232,104200.0,101700.0,104200.0,103400.0,28.433619737625122,0.1450980392156863,0.044296940566109715,0.009216449225604639,0.1450980392156863,0.119,-0.206,10.58519,28.43671703338623,0.036,-0.037,0.186,0.0,0.0,-0.0027675412129610777,0.9999961853027344,-0.00553509,0.0,0.0,0.0,0.0,0.586,0.0,0.0,0.012,28.44986581802368,3.572999954223633,False,True,False,True,True,False,False
58,0.58,0.032,-0.032,0.247,0.009686394594609737,0.005535082425922155,-0.0013837706064805388,0.9999368190765381,-0.0026603034,0.011096501,0.019358648,0.004,0.063,0.623,0.189,-0.001,-0.012,28.44986581802368,0.03250281140208244,-0.0329296700656414,0.2563187777996063,,,,,,,,0.6742504005493248,0.6502937361715114,0.6548714427405203,0.6686350804913405,104900.0,102000.0,104200.0,103100.0,28.44986581802368,0.3594720378423743,0.014465552758068208,0.007522697795071336,0.3594720378423743,0.117,-0.236,10.52919,28.450791835784912,0.036,-0.037,0.186,0.0,0.0,-0.0027675412129610777,0.9999961853027344,-0.00553509,0.0,0.0,0.0,0.0,0.586,0.0,0.0,0.012,28.44986581802368,3.562999963760376,False,True,False,True,True,False,False
59,0.59,0.032,-0.031,0.255,0.01107016485184431,0.005535082425922155,-0.0013837706064805388,0.9999224543571472,-0.002644944,0.011100171,0.022126462,0.004,0.058,0.632,0.124,-0.026,0.011,28.460458040237427,0.03252057731151581,-0.03266570717096329,0.26225632429122925,,,,,,,,0.6341039139391165,0.6215609979400321,0.686503395132372,0.6703593499656672,103100.0,102700.0,103100.0,103400.0,28.460458040237427,0.479316395819028,-0.0021362630655374993,0.004898146028839551,0.479316395819028,0.158,-0.223,10.32019,28.457030296325684,0.036,-0.037,0.197,0.0,0.0,-0.0027675412129610777,0.9999961853027344,-0.00553509,0.0,0.0,0.0,0.0,0.603,0.0,0.0,0.012,28.469456672668457,3.562999963760376,False,True,False,True,True,False,False
60,0.6,0.032,-0.031,0.261,0.012453935109078884,0.005535082425922155,-0.0013837706064805388,0.9999061822891235,-0.0026295795,0.011103821,0.02489432,0.005,0.055,0.639,0.076,0.013,0.001,28.469456672668457,0.032374102622270584,-0.03251773864030838,0.2683935761451721,,,,,,,,0.6409246967269399,0.6154726482032502,0.6652475776302739,0.6720225833524072,105300.0,103100.0,103100.0,102000.0,28.469456672668457,0.2050659952697032,-0.0027924010070954452,0.005004959182116427,0.2050659952697032,0.145,-0.209,10.386190000000001,28.46703791618347,0.036,-0.037,0.197,0.0,0.0,-0.0027675412129610777,0.9999961853027344,-0.00553509,0.0,0.0,0.0,0.0,0.603,0.0,0.0,0.012,28.469456672668457,3.562999963760376,False,True,False,True,True,False,False
61,0.61,0.032,-0.031,0.26,0.013837706297636032,0.005535082425922155,-0.0013837706064805388,0.999888002872467,-0.0026142097,0.01110745,0.027662229,0.006,0.038,0.626,0.039,0.022,0.017,28.47992444038391,0.03231727331876755,-0.0323326401412487,0.274594783782959,,,,,,,,0.6961470969710841,0.6706034943160143,0.6789044022278172,0.6707560845349813,104200.0,100300.0,103100.0,102400.0,28.47992444038391,0.995727473868925,0.04110780498970016,0.0055848020141908905,0.995727473868925,0.155,-0.255,10.350190000000001,28.477630138397217,0.036,-0.037,0.209,0.0,0.0,-0.0027675412129610777,0.9999961853027344,-0.00553509,0.0,0.0,0.0,0.0,0.617,0.0,0.0,0.013,28.49008846282959,3.562999963760376,False,True,False,True,True,False,False
62,0.62,0.031,-0.031,0.27,0.013837706297636032,0.004151311703026295,-0.0013837706064805388,0.9998946785926819,-0.0026524558,0.008340142,0.0276655,-0.001,0.039,0.646,0.061,-0.021,-0.006,28.49008846282959,0.032324038445949554,-0.03217184916138649,0.28069794178009033,,,,,,,,0.6503547722590982,0.6653086137178607,0.6628366521705958,0.6369573510337987,104500.0,101400.0,103100.0,101700.0,28.49008846282959,0.8521858548867017,0.026703288319218737,0.0077515831235217825,0.8521858548867017,0.149,-0.285,10.26919,28.486628770828247,0.036,-0.037,0.209,0.0,0.0,-0.0027675412129610777,0.9999961853027344,-0.00553509,0.0,0.0,0.0,0.0,0.617,0.0,0.0,0.013,28.49008846282959,3.578000068664551,False,True,False,True,True,False,False
63,0.63,0.032,-0.031,0.278,0.013837706297636032,0.005535082425922155,-0.0013837706064805388,0.999888002872467,-0.0026142097,0.01110745,0.027662229,0.007,0.035,0.656,0.024,-0.024,0.0,28.50007152557373,0.03223642706871033,-0.032090697437524796,0.28689175844192505,,,,,,,,0.6511024643320363,0.6377660791943236,0.6399938963912413,0.6342870222018768,103400.0,102000.0,102700.0,102000.0,28.50007152557373,0.3903105210955978,-0.011001754787518121,0.003356984817273213,0.3903105210955978,0.11,-0.295,10.16319,28.4970965385437,0.036,-0.037,0.215,0.0,0.0,-0.0027675412129610777,0.9999961853027344,-0.00553509,0.0,0.0,0.0,0.0,0.624,0.0,0.0,0.013,28.50007152557373,3.578000068664551,False,True,False,True,True,False,False
64,0.64,0.032,-0.031,0.285,0.013837706297636032,0.005535082425922155,-0.0013837706064805388,0.999888002872467,-0.0026142097,0.01110745,0.027662229,0.008,0.031,0.661,-0.066,0.045,0.006,28.50934338569641,0.032138925045728683,-0.031924523413181305,0.29323703050613403,,,,,,,,0.6418554970626383,0.5799343862058443,0.6351415274280918,0.6796063172350653,103100.0,102000.0,102400.0,100000.0,28.50934338569641,0.043305104142824444,0.005783169298847944,0.003082322423132677,0.043305104142824444,0.115,-0.29,10.120190000000001,28.50726056098938,0.036,-0.037,0.222,0.0,0.0,-0.0027675412129610777,0.9999961853027344,-0.00553509,0.0,0.0,0.0,0.0,0.63,0.0,0.0,0.013,28.50934338569641,3.578000068664551,False,True,False,True,True,False,False
65,0.65,0.032,-0.031,0.292,0.013837706297636032,0.004151311703026295,-0.0013837706064805388,0.9998946785926819,-0.0026524558,0.008340142,0.0276655,0.004,0.028,0.665,-0.086,0.047,0.017,28.51955795288086,0.03244912624359131,-0.03187665343284607,0.29946911334991455,,,,,,,,0.6530861371786069,0.5824368657969025,0.6160982681010148,0.6583657587548638,101700.0,99300.0,102000.0,102400.0,28.51955795288086,0.3424734874494545,0.06828412298771648,0.004470893415732051,0.3424734874494545,0.117,-0.349,10.11119,28.51724362373352,0.036,-0.037,0.228,0.0,0.0,-0.0027675412129610777,0.9999961853027344,-0.00553509,0.0,0.0,0.0,0.0,0.635,0.0,0.0,0.013,28.51955795288086,3.578000068664551,False,True,False,True,True,False,False
66,0.66,0.032,-0.03,0.295,0.013837706297636032,0.005535082425922155,-0.0013837706064805388,0.999888002872467,-0.0026142097,0.01110745,0.027662229,0.013,0.028,0.648,-0.078,-0.0,0.009,28.529528617858887,0.03225629776716232,-0.031837329268455505,0.3057606816291809,,,,,,,,0.6487678339818418,0.6255436026550698,0.6635080491340505,0.6618295567254139,102000.0,98700.0,101000.0,101700.0,28.529528617858887,0.6402380407415884,0.02374303807125963,0.007232776379034104,0.6402380407415884,0.125,-0.284,9.99219,28.5265154838562,0.036,-0.037,0.234,0.0,0.0,-0.0027675412129610777,0.9999961853027344,-0.00553509,0.0,0.0,0.0,0.0,0.64,0.0,0.0,0.013,28.529528617858887,3.578000068664551,False,True,False,True,True,False,False
67,0.67,0.032,-0.03,0.303,0.013837706297636032,0.005535082425922155,-0.0,0.9998889565467834,0.00015319507,0.011069162,0.027677568,0.011,0.014,0.654,-0.039,-0.051,0.0,28.539637565612793,0.03230394795536995,-0.03180931881070137,0.3119892477989197,,,,,,,,0.6386816205081254,0.6582742046234836,0.6463416495002671,0.6058747234302281,102000.0,98000.0,102000.0,100000.0,28.539637565612793,0.37885099565117875,0.005737392233157855,0.006881818875410086,0.37885099565117875,0.104,-0.325,9.895190000000001,28.53673005104065,0.036,-0.037,0.24,0.0,0.0,-0.0027675412129610777,0.9999961853027344,-0.00553509,0.0,0.0,0.0,0.0,0.644,0.0,0.0,0.013,28.539637565612793,3.578000068664551,False,True,False,True,True,False,False
68,0.68,0.032,-0.03,0.31,0.012453935109078884,0.005535082425922155,-0.0013837706064805388,0.9999061822891235,-0.0026295795,0.011103821,0.02489432,0.009,0.022,0.656,-0.059,-0.054,0.013,28.549543142318726,0.0322713777422905,-0.031888142228126526,0.31833189725875854,,,,,,,,0.6314030670634012,0.611413748378729,0.6407721065079729,0.6414740215152209,101400.0,100000.0,100700.0,99000.0,28.549543142318726,0.15075913633936064,-0.013931486991683834,0.005096513313496605,0.15075913633936064,0.169,-0.312,9.732190000000001,28.546700716018677,0.036,-0.037,0.247,0.0,0.0,-0.0027675412129610777,0.9999961853027344,-0.00553509,0.0,0.0,0.0,0.0,0.647,0.0,0.0,0.013,28.549543142318726,3.578000068664551,False,True,False,True,True,False,False
69,0.6900000000000001,0.032,-0.03,0.317,0.012453935109078884,0.005535082425922155,-0.0013837706064805388,0.9999061822891235,-0.0026295795,0.011103821,0.02489432,0.011,0.014,0.658,-0.114,-0.0,0.014,28.55971622467041,0.03225233033299446,-0.03185540810227394,0.3246222138404846,,,,,,,,0.6458838788433662,0.5749599450675211,0.6186312657358664,0.6592813000686656,101400.0,99000.0,101000.0,100000.0,28.55971622467041,0.606683451590753,0.023437857633325704,0.003799496452277409,0.606683451590753,0.154,-0.273,9.77419,28.556809663772583,0.036,-0.037,0.253,0.0,0.0,-0.0027675412129610777,0.9999961853027344,-0.00553509,0.0,0.0,0.0,0.0,0.65,0.0,0.0,0.013,28.55971622467041,3.578000068664551,False,True,False,True,True,False,False
70,0.7000000000000001,0.032,-0.03,0.315,0.012453935109078884,0.004151311703026295,-0.0,0.9999138116836548,0.0001034039,0.008302004,0.024909157,0.012,0.005,0.638,-0.123,0.019,0.013,28.56965732574463,0.03227846324443817,-0.03187781944870949,0.3309363126754761,,,,,,,,0.6764934767681392,0.6276646066987106,0.6516823071641108,0.6725566491187915,100000.0,97100.0,99700.0,100300.0,28.56965732574463,0.9241931792172122,0.0354009308003357,0.009826810101472495,0.9241931792172122,0.16,-0.252,9.741190000000001,28.566715240478516,0.036,-0.037,0.26,0.0,0.0,-0.0027675412129610777,0.9999961853027344,-0.00553509,0.0,0.0,0.0,0.0,0.652,0.0,0.0,0.013,28.56965732574463,3.572999954223633,False,True,False,True,True,False,False
71,0.71,0.032,-0.03,0.326,0.012453935109078884,0.004151311703026295,-0.0,0.9999138116836548,0.0001034039,0.008302004,0.024909157,0.012,0.007,0.653,-0.126,-0.035,0.004,28.57984495162964,0.03234805911779404,-0.031902022659778595,0.33707666397094727,,,,,,,,0.6157167925535973,0.5818112458991379,0.6269474326695659,0.6417486839093615,101000.0,98000.0,99300.0,100300.0,28.57984495162964,0.21771572442206455,0.04856946669718471,0.006958113984893569,0.21771572442206455,0.118,-0.303,9.67819,28.5768883228302,0.036,-0.037,0.266,0.0,0.0,-0.0027675412129610777,0.9999961853027344,-0.00553509,0.0,0.0,0.0,0.0,0.653,0.0,0.0,0.013,28.57984495162964,3.572999954223633,False,True,False,True,True,False,False
72,0.72,0.032,-0.03,0.334,0.01107016485184431,0.004151311703026295,-0.0013837706064805388,0.9999291300773621,-0.0026755298,0.0083327675,0.022129847,0.013,0.014,0.66,-0.111,-0.059,0.01,28.590699672698975,0.032713185995817184,-0.032067395746707916,0.3433615565299988,,,,,,,,0.6094148165102617,0.5972991531242847,0.6319066147859922,0.6221103227283131,100000.0,97400.0,100700.0,99700.0,28.590699672698975,0.5220569161516747,-0.01019302662699321,0.007629510948348211,0.5220569161516747,0.131,-0.291,9.56019,28.58682942390442,0.036,-0.037,0.273,0.0,0.0,-0.0027675412129610777,0.9999961853027344,-0.00553509,0.0,0.0,0.0,0.0,0.653,0.0,0.0,0.013,28.590699672698975,3.572999954223633,False,True,False,True,True,False,False
73,0.73,0.032,-0.03,0.334,0.01107016485184431,0.004151311703026295,-0.0013837706064805388,0.9999291300773621,-0.0026755298,0.0083327675,0.022129847,0.013,0.014,0.66,-0.111,-0.059,0.01,28.590699672698975,0.032713185995817184,-0.032067395746707916,0.3433615565299988,,,,,,,,0.6094148165102617,0.5972991531242847,0.6319066147859922,0.6221103227283131,100000.0,97400.0,100700.0,99700.0,28.590699672698975,0.5220569161516747,-0.01019302662699321,0.007629510948348211,0.5220569161516747,0.131,-0.291,9.56019,28.58682942390442,0.036,-0.037,0.273,0.0,0.0,-0.0027675412129610777,0.9999961853027344,-0.00553509,0.0,0.0,0.0,0.0,0.653,0.0,0.0,0.013,28.590699672698975,3.572999954223633,False,True,False,True,True,False,False
74,0.74,0.032,-0.031,0.342,0.01107016485184431,0.004151311703026295,-0.0,0.9999300837516785,9.1914575e-05,0.008302138,0.022141354,0.016,0.008,0.66,-0.093,-0.04,-0.002,28.60246515274048,0.0328613743185997,-0.03223772346973419,0.355485737323761,,,,,,,,0.6166018158236057,0.5960326543068589,0.6038452735179675,0.6094605935759518,100300.0,97100.0,100000.0,98000.0,28.60246515274048,0.26294346532387275,0.012634470130464637,0.0060120546272983905,0.26294346532387275,0.137,-0.189,9.568190000000001,28.607871770858765,0.036,-0.037,0.292,0.0,0.0,-0.0027675412129610777,0.9999961853027344,-0.00553509,0.0,0.0,0.0,0.0,0.651,0.0,0.0,0.013,28.6198468208313,3.5840001106262207,False,True,False,True,True,False,False
75,0.75,0.032,-0.031,0.35,0.009686394594609737,0.004151311703026295,-0.0,0.9999444484710693,8.0425256e-05,0.008302257,0.019373592,0.014,0.008,0.633,-0.048,-0.045,0.015,28.6198468208313,0.0328204445540905,-0.032343536615371704,0.36162257194519043,,,,,,,,0.6449835965514611,0.619806210421912,0.6200503547722591,0.6195315480277714,98700.0,96200.0,99000.0,97400.0,28.6198468208313,0.10974288548104066,0.0005340657663843748,0.006469825284199283,0.10974288548104066,0.134,-0.187,9.533190000000001,28.61963725090027,0.036,-0.037,0.292,0.0,0.0,-0.0027675412129610777,0.9999961853027344,-0.00553509,0.0,0.0,0.0,0.0,0.651,0.0,0.0,0.013,28.6198468208313,3.5840001106262207,False,True,False,True,True,False,False
76,0.76,0.032,-0.031,0.359,0.009686394594609737,0.004151311703026295,-0.0,0.9999444484710693,8.0425256e-05,0.008302257,0.019373592,0.018,-0.001,0.635,-0.092,-0.001,0.011,28.630983114242554,0.032856449484825134,-0.03236331418156624,0.3676128387451172,,,,,,,,0.6275883115892271,0.5938353551537346,0.6093080033569848,0.621210040436408,99000.0,96800.0,98400.0,97700.0,28.630983114242554,0.2830701152056153,0.00784313725490196,0.007705806057831693,0.2830701152056153,0.087,-0.166,9.33619,28.6265549659729,0.036,-0.037,0.305,0.0,0.0,-0.0013837706064805388,0.9999990463256836,-0.0027675421,0.0,0.0,0.0,0.0,0.646,0.0,0.0,0.013,28.640319347381592,3.5840001106262207,False,True,False,True,True,False,False
77,0.77,0.032,-0.031,0.366,0.00830262340605259,0.004151311703026295,-0.0,0.9999569058418274,6.893593e-05,0.008302362,0.016605867,0.017,0.001,0.632,-0.129,-0.027,0.011,28.640319347381592,0.033093106001615524,-0.03257029876112938,0.373563289642334,,,,,,,,0.6003356984817273,0.5770199130235751,0.621362630655375,0.6256961928740368,99000.0,95500.0,97400.0,97400.0,28.640319347381592,0.9272602426184482,0.05795376516365301,0.0025177386129549098,0.9272602426184482,0.064,-0.158,9.17219,28.63701891899109,0.036,-0.037,0.311,0.0,0.0,-0.0013837706064805388,0.9999990463256836,-0.0027675421,0.0,0.0,0.0,0.0,0.643,0.0,0.0,0.013,28.652520418167114,3.5840001106262207,False,True,False,True,True,False,False
78,0.78,0.032,-0.031,0.372,0.00830262340605259,0.004151311703026295,-0.0,0.9999569058418274,6.893593e-05,0.008302362,0.016605867,0.017,0.0,0.627,-0.137,-0.055,0.023,28.652520418167114,0.03313162177801132,-0.03265960142016411,0.37939727306365967,,,,,,,,0.6039215686274509,0.5715724422064545,0.6172884718089571,0.6158236057068742,97700.0,95800.0,98700.0,95800.0,28.652520418167114,0.16549935149156939,0.029434653238727397,0.005264362554360266,0.16549935149156939,0.062,-0.224,9.12419,28.648155212402344,0.036,-0.037,0.317,0.0,0.0,-0.0013837706064805388,0.9999990463256836,-0.0027675421,0.0,0.0,0.0,0.0,0.639,0.0,0.0,0.013,28.663267135620117,3.5999999046325684,False,True,False,True,True,False,False
79,0.79,0.032,-0.031,0.371,0.00830262340605259,0.004151311703026295,-0.0,0.9999569058418274,6.893593e-05,0.008302362,0.016605867,0.018,0.0,0.603,-0.148,-0.055,0.006,28.663267135620117,0.033479489386081696,-0.032721906900405884,0.38528144359588623,,,,,,,,0.631113145647364,0.5909208819714656,0.643381399252308,0.6652018005645838,96200.0,94900.0,97100.0,95200.0,28.663267135620117,0.15304798962386512,0.021942473487449453,0.007339589532310979,0.15304798962386512,0.081,-0.178,9.193190000000001,28.657491445541382,0.036,-0.037,0.324,0.0,0.0,-0.0013837706064805388,0.9999990463256836,-0.0027675421,0.0,0.0,0.0,0.0,0.634,0.0,0.0,0.013,28.66948938369751,3.5999999046325684,False,True,False,True,True,False,False
80,0.8,0.033,-0.032,0.381,0.006918853148818016,0.0027675412129610777,-0.0,0.9999722242355347,3.8297007e-05,0.005534957,0.013837975,0.015,-0.007,0.612,-0.1,-0.037,0.0,28.66948938369751,0.033494383096694946,-0.032904233783483505,0.3910079598426819,,,,,,,,0.6250553139543755,0.5934691386282139,0.5987792782482643,0.6105897611963074,96800.0,94000.0,97100.0,96500.0,28.66948938369751,0.960494392309453,0.0247348744945449,0.005874723430228122,0.960494392309453,0.096,-0.183,9.120190000000001,28.669692516326904,0.036,-0.037,0.33,0.0,0.0,-0.0013837706064805388,0.9999990463256836,-0.0027675421,0.0,0.0,0.0,0.0,0.629,0.0,0.0,0.013,28.679845809936523,3.5999999046325684,False,True,False,True,True,False,False
81,0.81,0.033,-0.031,0.389,0.006918853148818016,0.0027675412129610777,-0.0,0.9999722242355347,3.8297007e-05,0.005534957,0.013837975,0.021,-0.001,0.612,-0.06,-0.024,0.013,28.679845809936523,0.03367193043231964,-0.03314070776104927,0.3966147303581238,,,,,,,,0.6216372930495155,0.5597161821927215,0.5739070725566491,0.6156252384222172,97100.0,94900.0,96500.0,96200.0,28.679845809936523,0.3888609140154116,0.028625925078202486,0.004440375371938659,0.3888609140154116,0.047,-0.147,9.07319,28.680439233779907,0.036,-0.037,0.336,0.0,0.0,-0.0013837706064805388,0.9999990463256836,-0.0027675421,0.0,0.0,0.0,0.0,0.623,0.0,0.0,0.013,28.691474437713623,3.5999999046325684,False,True,False,True,True,False,False
82,0.8200000000000001,0.033,-0.032,0.395,0.006918853148818016,0.0027675412129610777,-0.0,0.9999722242355347,3.8297007e-05,0.005534957,0.013837975,0.02,-0.009,0.604,-0.103,-0.024,0.015,28.691474437713623,0.034053437411785126,-0.033354368060827255,0.4023318290710449,,,,,,,,0.5884184023804074,0.5605554283970398,0.6042572671091783,0.6001373311970702,97100.0,94300.0,94600.0,95800.0,28.691474437713623,0.7403677424277104,0.024490730144197757,0.005996795605401694,0.7403677424277104,0.092,-0.079,8.995190000000001,28.6866614818573,0.036,-0.037,0.342,0.0,0.0,-0.0013837706064805388,0.9999990463256836,-0.0027675421,0.0,0.0,0.0,0.0,0.616,0.0,0.0,0.013,28.699626684188843,3.6050000190734863,False,True,False,True,True,False,False
83,0.8300000000000001,0.033,-0.032,0.401,0.005535082425922155,0.0027675412129610777,-0.0,0.9999808669090271,3.0637606e-05,0.0055350047,0.011070349,0.016,-0.009,0.596,-0.151,-0.055,0.007,28.699626684188843,0.03402304649353027,-0.03347668796777725,0.40780705213546753,,,,,,,,0.5842832074464027,0.556572823682002,0.5922178988326848,0.6046692607003891,95200.0,94300.0,95500.0,95200.0,28.699626684188843,0.6168154421301595,0.043427176317998015,0.0065613794155794615,0.6168154421301595,0.073,-0.074,9.017190000000001,28.697017908096313,0.036,-0.037,0.348,0.0,0.0,-0.0013837706064805388,0.9999990463256836,-0.0027675421,0.0,0.0,0.0,0.0,0.609,0.0,0.0,0.012,28.709694862365723,3.6050000190734863,False,True,False,True,True,False,False
84,0.84,0.033,-0.032,0.403,0.005535082425922155,0.0027675412129610777,-0.0,0.9999808669090271,3.0637606e-05,0.0055350047,0.011070349,0.015,-0.006,0.563,-0.149,-0.05,0.008,28.709694862365723,0.034339986741542816,-0.033634383231401443,0.4132227301597595,,,,,,,,0.6122835126268407,0.5956511787594415,0.6240024414435035,0.6190890363927672,95200.0,94300.0,96800.0,94900.0,28.709694862365723,0.616739147020676,0.009079118028534372,0.0038757915617608912,0.616739147020676,0.053,-0.103,9.00319,28.708646535873413,0.036,-0.037,0.348,0.0,0.0,-0.0013837706064805388,0.9999990463256836,-0.0027675421,0.0,0.0,0.0,0.0,0.609,0.0,0.0,0.012,28.709694862365723,3.6050000190734863,False,True,False,True,True,False,False
85,0.85,0.034,-0.032,0.41,0.004151311703026295,0.0027675412129610777,-0.0,0.9999875426292419,2.2978205e-05,0.0055350414,0.008302743,0.02,-0.001,0.564,-0.152,-0.033,0.008,28.719944715499878,0.03436886519193649,-0.03391420841217041,0.41855108737945557,,,,,,,,0.5890592813000687,0.5598535133897917,0.6099946593423362,0.6272983901731899,96200.0,93800.0,96800.0,96800.0,28.719944715499878,0.8683909361409934,0.003219653620202945,0.0055848020141908905,0.8683909361409934,0.066,-0.113,8.88119,28.716798782348633,0.036,-0.037,0.36,0.0,0.0,-0.0013837706064805388,0.9999990463256836,-0.0027675421,0.0,0.0,0.0,0.0,0.593,0.0,0.0,0.012,28.72986674308777,3.6050000190734863,False,True,False,True,True,False,False
86,0.86,0.034,-0.032,0.417,0.0027675412129610777,0.0013837706064805388,-0.0,0.999995231628418,7.659313e-06,0.0027675314,0.0055351052,0.021,0.0,0.558,-0.093,-0.026,0.02,28.72986674308777,0.03472539409995079,-0.034081216901540756,0.423761785030365,,,,,,,,0.599649042496376,0.5611352712291142,0.5910124361028458,0.6041351949340047,95200.0,93800.0,97100.0,96500.0,28.72986674308777,0.7184100099183642,0.024200808728160526,0.004638742656595712,0.7184100099183642,0.042,-0.094,8.84319,28.726866960525513,0.036,-0.037,0.366,0.0,0.0,-0.0013837706064805388,0.9999990463256836,-0.0027675421,0.0,0.0,0.0,0.0,0.584,0.0,0.0,0.012,28.739537715911865,3.5999999046325684,False,True,False,True,True,False,False
87,0.87,0.034,-0.033,0.422,0.0013837706064805388,0.0013837706064805388,-0.0,0.9999980926513672,3.8296566e-06,0.0027675394,0.00276755,0.018,0.009,0.549,-0.023,-0.032,0.021,28.739537715911865,0.03482534736394882,-0.03427105396986008,0.42884987592697144,,,,,,,,0.5996185244525826,0.5534142061493859,0.579995422293431,0.6054474708171206,94900.0,93500.0,96800.0,95200.0,28.739537715911865,0.7823758297093156,0.013962005035477227,0.006500343327992676,0.7823758297093156,0.058,-0.062,8.84819,28.737116813659668,0.036,-0.037,0.372,0.0,0.0,-0.0013837706064805388,0.9999990463256836,-0.0027675421,0.0,0.0,0.0,0.0,0.574,0.0,0.0,0.012,28.749794960021973,3.5999999046325684,False,True,False,True,True,False,False
88,0.88,0.034,-0.033,0.42,0.0013837706064805388,0.0013837706064805388,-0.0,0.9999980926513672,3.8296566e-06,0.0027675394,0.00276755,0.016,0.006,0.52,0.013,-0.029,0.021,28.749794960021973,0.03519999608397484,-0.034407537430524826,0.4339260458946228,,,,,,,,0.6478065156023499,0.5886625467307546,0.5999237048905165,0.6309910734721904,94300.0,93800.0,95800.0,94300.0,28.749794960021973,0.6648813611047532,0.040711070420386054,0.006790264744029908,0.6648813611047532,0.065,-0.011,8.89019,28.74703884124756,0.036,-0.037,0.377,0.0,0.0,-0.0013837706064805388,0.9999990463256836,-0.0027675421,0.0,0.0,0.0,0.0,0.565,0.0,0.0,0.011,28.760108709335327,3.5999999046325684,False,True,False,True,True,False,False
89,0.89,0.034,-0.033,0.429,0.0013837706064805388,0.0013837706064805388,-0.0,0.9999980926513672,3.8296566e-06,0.0027675394,0.00276755,0.023,0.007,0.527,0.028,-0.024,0.031,28.760108709335327,0.03531929850578308,-0.034734707325696945,0.43870776891708374,,,,,,,,0.6065461203936827,0.5681239032578012,0.5886015106431678,0.6009613183794918,96200.0,93200.0,95800.0,96200.0,28.760108709335327,0.9153276874952315,0.01487754634927901,0.00814831769283589,0.9153276874952315,0.038,0.027,8.847190000000001,28.756709814071655,0.036,-0.037,0.383,0.0,0.0,-0.0013837706064805388,0.9999990463256836,-0.0027675421,0.0,0.0,0.0,0.0,0.554,0.0,0.0,0.011,28.769766330718994,3.5999999046325684,False,True,False,True,True,False,False
90,0.9,0.034,-0.033,0.436,0.0013837706064805388,0.0013837706064805388,-0.0,0.9999980926513672,3.8296566e-06,0.0027675394,0.00276755,0.018,0.006,0.524,0.037,-0.037,0.024,28.769766330718994,0.03557362034916878,-0.03499907627701759,0.44360822439193726,,,,,,,,0.5918669413290608,0.559487296864271,0.5765468833447775,0.5821927214465553,95800.0,94000.0,95500.0,94600.0,28.769766330718994,0.312138551918822,0.025818265049210344,0.00477607385366598,0.312138551918822,0.037,-0.017,8.72319,28.766967058181763,0.036,-0.037,0.388,0.0,0.0,-0.0013837706064805388,0.9999990463256836,-0.0027675421,0.0,0.0,0.0,0.0,0.543,0.0,0.0,0.011,28.77939534187317,3.6050000190734863,False,True,False,True,True,False,False
91,0.91,0.035,-0.033,0.442,0.0013837706064805388,0.0013837706064805388,0.0,0.9999980926513672,3.8296566e-06,0.0027675394,0.00276755,0.021,0.005,0.516,0.006,-0.058,0.034,28.77939534187317,0.035759903490543365,-0.03520267456769943,0.44830846786499023,,,,,,,,0.5819638361181049,0.5401235980773632,0.5729304951552605,0.5844968337529565,96200.0,92900.0,95200.0,94000.0,28.77939534187317,0.8480201419089036,0.01756313420309758,0.006881818875410086,0.8480201419089036,0.017,-0.008,8.71419,28.777280807495117,0.036,-0.037,0.394,0.0,0.0,-0.0013837706064805388,0.9999990463256836,-0.0027675421,0.0,0.0,0.0,0.0,0.531,0.0,0.0,0.011,28.789876461029053,3.6050000190734863,False,True,False,True,True,False,False
92,0.92,0.035,-0.034,0.447,0.0027675412129610777,0.0,0.0,0.9999961853027344,0.0,0.0,0.00553509,0.017,0.001,0.506,-0.03,-0.07,0.011,28.789876461029053,0.03598994016647339,-0.03537827357649803,0.45293164253234863,,,,,,,,0.5685511558709087,0.546364538033112,0.5715724422064545,0.5718471046005951,92900.0,93500.0,94300.0,93500.0,28.789876461029053,0.8920424200808729,0.01799038681620508,0.006424048218509193,0.8920424200808729,0.048,-0.039,8.67519,28.786938428878784,0.036,-0.037,0.399,0.0,0.0,-0.0013837706064805388,0.9999990463256836,-0.0027675421,0.0,0.0,0.0,0.0,0.52,0.0,0.0,0.011,28.799615144729614,3.6050000190734863,False,True,False,True,True,False,False
93,0.93,0.035,-0.034,0.448,0.0027675412129610777,0.0,0.0,0.9999961853027344,0.0,0.0,0.00553509,0.018,0.004,0.492,-0.057,-0.046,0.029,28.799615144729614,0.036425717175006866,-0.03565354645252228,0.4574708342552185,,,,,,,,0.5801632715342947,0.5439688715953307,0.585778591592279,0.5882810711833372,94300.0,92000.0,94000.0,91700.0,28.799615144729614,0.5341725795376516,0.013595788509956512,0.008239871824216068,0.5341725795376516,0.033,-0.034,8.69719,28.79656744003296,0.036,-0.037,0.404,0.0,0.0,-0.0013837706064805388,0.9999990463256836,-0.0027675421,0.0,0.0,0.0,0.0,0.507,0.0,0.0,0.01,28.81186580657959,3.6050000190734863,False,True,False,True,True,False,False
94,0.9400000000000001,0.035,-0.034,0.455,0.0027675412129610777,-0.0,0.0,0.9999961853027344,0.0,-0.0,0.00553509,0.02,-0.003,0.488,-0.036,-0.042,0.022,28.81186580657959,0.03650075942277908,-0.03581732138991356,0.46164339780807495,,,,,,,,0.5721065079728389,0.5391165026321812,0.5655756466010529,0.5657892729076066,94300.0,92000.0,95200.0,92300.0,28.81186580657959,0.08628976882581826,0.029526207370107575,0.007553215838864729,0.08628976882581826,0.03,-0.055,8.54419,28.807048559188843,0.036,-0.037,0.409,0.0,0.0,-0.0013837706064805388,0.9999990463256836,-0.0027675421,0.0,0.0,0.0,0.0,0.495,0.0,0.0,0.01,28.82003688812256,3.609999895095825,False,True,False,True,True,False,False
95,0.9500000000000001,0.035,-0.034,0.46,0.0013837706064805388,-0.0,0.0,0.9999990463256836,0.0,-0.0,0.0027675421,0.019,-0.001,0.477,-0.027,0.005,0.026,28.82003688812256,0.03671758621931076,-0.0360800139605999,0.4659402370452881,,,,,,,,0.582055390249485,0.5334096284428168,0.5457694361791409,0.5599298084992752,93500.0,90900.0,94300.0,91500.0,28.82003688812256,0.5261310749980926,0.02383459220263981,0.009277485313191424,0.5261310749980926,-0.019,-0.065,8.55319,28.816787242889404,0.036,-0.037,0.414,0.0,0.0,-0.0013837706064805388,0.9999990463256836,-0.0027675421,0.0,0.0,0.0,0.0,0.482,0.0,0.0,0.01,28.829644918441772,3.609999895095825,False,True,False,True,True,False,False
96,0.96,0.036,-0.035,0.465,0.0013837706064805388,-0.0,0.0013837706064805388,0.9999980926513672,0.0027675394,-3.829642e-06,0.0027675394,0.02,-0.003,0.463,-0.029,0.041,0.033,28.829644918441772,0.0369730107486248,-0.036311011761426926,0.4700298309326172,,,,,,,,0.5890897993438621,0.5057755397878996,0.5406271457999542,0.5814602883955139,92900.0,89800.0,92600.0,90900.0,28.829644918441772,0.1560387579156176,0.05322346837567712,0.008072022583352408,0.1560387579156176,0.002,-0.053,8.51919,28.82903790473938,0.036,-0.037,0.418,0.0,0.0,-0.0013837706064805388,0.9999990463256836,-0.0027675421,0.0,0.0,0.0,0.0,0.469,0.0,0.0,0.009,28.8397798538208,3.609999895095825,False,True,False,True,True,False,False
97,0.97,0.036,-0.035,0.462,0.0013837706064805388,-0.0,0.0013837706064805388,0.9999980926513672,0.0027675394,-3.829642e-06,0.0027675394,0.017,-0.005,0.43,-0.078,-0.013,0.029,28.8397798538208,0.037211380898952484,-0.03648309409618378,0.4739694595336914,,,,,,,,0.5809719996948196,0.5745021744106202,0.6146028839551385,0.578286411841001,93500.0,90400.0,92000.0,91200.0,28.8397798538208,0.8864881361104753,0.046555275806820784,0.01181048294804303,0.8864881361104753,0.025,-0.022,8.41319,28.83720898628235,0.036,-0.037,0.418,0.0,0.0,-0.0013837706064805388,0.9999990463256836,-0.0027675421,0.0,0.0,0.0,0.0,0.469,0.0,0.0,0.009,28.8397798538208,3.609999895095825,False,True,False,True,True,False,False
98,0.98,0.036,-0.035,0.462,0.0013837706064805388,-0.0,0.0013837706064805388,0.9999980926513672,0.0027675394,-3.829642e-06,0.0027675394,0.017,-0.005,0.43,-0.078,-0.013,0.029,28.8397798538208,0.037211380898952484,-0.03648309409618378,0.4739694595336914,,,,,,,,0.5809719996948196,0.5745021744106202,0.6146028839551385,0.578286411841001,93500.0,90400.0,92000.0,91200.0,28.8397798538208,0.8864881361104753,0.046555275806820784,0.01181048294804303,0.8864881361104753,0.025,-0.022,8.41319,28.83720898628235,0.036,-0.037,0.418,0.0,0.0,-0.0013837706064805388,0.9999990463256836,-0.0027675421,0.0,0.0,0.0,0.0,0.469,0.0,0.0,0.009,28.8397798538208,3.609999895095825,False,True,False,True,True,False,False
99,0.99,0.036,-0.035,0.469,0.0013837706064805388,-0.0,0.0013837706064805388,0.9999980926513672,0.0027675394,-3.829642e-06,0.0027675394,0.019,-0.005,0.429,-0.074,-0.054,0.004,28.852229356765747,0.037948090583086014,-0.03678787872195244,0.4816915988922119,,,,,,,,0.5684138246738384,0.5554741741054399,0.5762874799725337,0.5660334172579538,93500.0,90900.0,91700.0,92300.0,28.852229356765747,0.04017700465400168,-0.011352712291142137,0.008133058670939193,0.04017700465400168,0.044,-0.102,8.19419,28.85695195198059,0.036,-0.037,0.432,0.0,0.0,-0.0013837706064805388,0.9999990463256836,-0.0027675421,0.0,0.0,0.0,0.0,0.427,0.0,0.0,0.009,28.872419595718384,3.609999895095825,False,True,False,True,True,False,False
100,1.0,0.037,-0.035,0.48,0.0,-0.0,0.0013837706064805388,0.9999990463256836,0.0027675421,-0.0,0.0,0.02,-0.001,0.409,-0.084,-0.037,0.013,28.872419595718384,0.037980083376169205,-0.03722192347049713,0.48495858907699585,,,,,,,,0.5721217669947356,0.516060120546273,0.5465781643396658,0.574868390936141,92600.0,89300.0,92600.0,90600.0,28.872419595718384,0.5400015259021896,0.043045700770580606,0.007019150072480354,0.5400015259021896,0.012,-0.04,8.283190000000001,28.869401454925537,0.036,-0.037,0.436,0.0,0.0,-0.0,1.0,0.0,0.0,0.0,0.0,0.0,0.413,0.0,0.0,0.008,28.879588842391968,3.609999895095825,False,True,False,True,True,False,False
101,1.01,0.037,-0.036,0.484,0.0,-0.0,0.0013837706064805388,0.9999990463256836,0.0027675421,-0.0,0.0,0.02,-0.002,0.392,-0.085,-0.034,0.03,28.879588842391968,0.03859526291489601,-0.03716331720352173,0.48856765031814575,,,,,,,,0.556420233463035,0.5259937438010224,0.5734493018997482,0.5580376897840849,91500.0,89300.0,91700.0,90900.0,28.879588842391968,0.41696803234912644,0.017212176699473565,0.00814831769283589,0.41696803234912644,0.02,-0.007,8.23419,28.876630306243896,0.036,-0.037,0.44,0.0,0.0,-0.0,1.0,0.0,0.0,0.0,0.0,0.0,0.399,0.0,0.0,0.008,28.889768838882446,3.609999895095825,False,True,False,True,True,False,False
102,1.02,0.037,-0.036,0.48,-0.0,-0.0013837706064805388,0.0013837706064805388,0.9999980926513672,0.00276755,-0.0027675394,-3.8296566e-06,0.018,-0.005,0.359,-0.051,-0.057,0.025,28.889768838882446,0.038503438234329224,-0.037614669650793076,0.4914904832839966,,,,,,,,0.6096742198825056,0.5786068513008317,0.5826047150377661,0.57094682230869,92900.0,89800.0,92600.0,89600.0,28.889768838882446,0.6904859998474098,0.029221026932173648,0.011001754787518121,0.6904859998474098,0.005,-0.025,8.24419,28.889591693878174,0.036,-0.037,0.444,0.0,0.0,-0.0,1.0,0.0,0.0,0.0,0.0,0.0,0.384,0.0,0.0,0.008,28.899813652038574,3.5940001010894775,False,True,False,True,True,False,False
103,1.03,0.037,-0.036,0.487,-0.0,-0.0013837706064805388,0.0013837706064805388,0.9999980926513672,0.00276755,-0.0027675394,-3.8296566e-06,0.021,-0.005,0.366,-0.057,-0.056,0.012,28.899813652038574,0.03917229175567627,-0.03779205307364464,0.4946300983428955,,,,,,,,0.5463797970550087,0.5462577248798351,0.5907225146868086,0.5550774395361258,92300.0,90600.0,93500.0,91500.0,28.899813652038574,0.8771801327534905,-0.005065995269703212,0.011947814145113297,0.8771801327534905,0.041,0.011,8.20119,28.896760940551758,0.036,-0.037,0.447,0.0,0.0,-0.0,1.0,0.0,0.0,0.0,0.0,0.0,0.37,0.0,0.0,0.007,28.909579753875732,3.5940001010894775,False,True,False,True,True,False,False
104,1.04,0.038,-0.036,0.492,-0.0013837706064805388,-0.0013837706064805388,0.0013837706064805388,0.9999971389770508,0.002771377,-0.0027637072,-0.002771377,0.021,-0.003,0.356,-0.051,-0.066,-0.001,28.909579753875732,0.03906936198472977,-0.03799625113606453,0.497358500957489,,,,,,,,0.5583886472877089,0.5215838864728771,0.5539330128938735,0.572854200045777,93500.0,88500.0,93500.0,89600.0,28.909579753875732,0.2614938582436866,0.036453803311207754,0.007629510948348211,0.2614938582436866,0.038,0.028,8.19419,28.906940937042236,0.036,-0.037,0.451,0.0,0.0,-0.0,1.0,0.0,0.0,0.0,0.0,0.0,0.355,0.0,0.0,0.007,28.919636726379395,3.5940001010894775,False,True,False,True,True,False,False
105,1.05,0.038,-0.036,0.496,-0.0013837706064805388,-0.0013837706064805388,0.0013837706064805388,0.9999971389770508,0.002771377,-0.0027637072,-0.002771377,0.021,-0.004,0.343,-0.027,-0.066,0.011,28.919636726379395,0.03926511108875275,-0.03812063857913017,0.499947190284729,,,,,,,,0.5642023346303502,0.5324330510414282,0.5503471427481499,0.5494621194781415,91700.0,89800.0,92000.0,90600.0,28.919636726379395,0.2328374151216907,0.033401998931868467,0.005020218204013123,0.2328374151216907,0.025,0.019,8.20119,28.916985750198364,0.036,-0.037,0.455,0.0,0.0,-0.0,1.0,0.0,0.0,0.0,0.0,0.0,0.34,0.0,0.0,0.007,28.92971134185791,3.5940001010894775,False,True,False,True,True,False,False
106,1.06,0.039,-0.037,0.491,-0.0013837706064805388,-0.0013837706064805388,0.0013837706064805388,0.9999971389770508,0.002771377,-0.0027637072,-0.002771377,0.022,-0.006,0.307,-0.039,-0.036,0.018,28.92971134185791,0.039783068001270294,-0.03830547258257866,0.5027625560760498,,,,,,,,0.6057526512550545,0.5468223086900129,0.5861600671396964,0.6102998397802701,92000.0,89300.0,91200.0,88800.0,28.92971134185791,0.5736476691844052,0.02221713588158999,0.008499275196459906,0.5736476691844052,-0.001,0.055,8.34519,28.926751852035522,0.036,-0.037,0.458,0.0,0.0,-0.0,1.0,0.0,0.0,0.0,0.0,0.0,0.326,0.0,0.0,0.006,28.941400289535522,3.5999999046325684,False,True,False,True,True,False,False
107,1.07,0.039,-0.037,0.498,-0.0013837706064805388,-0.0027675412129610777,0.0013837706064805388,0.9999942779541016,0.0027752304,-0.005531249,-0.0027752304,0.018,-0.003,0.307,-0.046,-0.048,0.004,28.941400289535522,0.03985339030623436,-0.03851105272769928,0.5048530101776123,,,,,,,,0.5659571221484703,0.5434348058289463,0.583566033417258,0.5742885481040665,92900.0,89600.0,92900.0,90400.0,28.941400289535522,0.3382467383840696,0.03819333180743115,0.00912489509422446,0.3382467383840696,-0.02,0.073,8.235190000000001,28.936808824539185,0.036,-0.037,0.461,0.0,0.0,-0.0,1.0,0.0,0.0,0.0,0.0,0.0,0.31,0.0,0.0,0.006,28.950329065322876,3.5999999046325684,False,True,False,True,True,False,False
108,1.08,0.039,-0.037,0.502,-0.0027675412129610777,-0.0027675412129610777,0.0013837706064805388,0.9999913573265076,0.002782882,-0.005527403,-0.005542807,0.018,0.005,0.296,-0.056,-0.076,0.007,28.950329065322876,0.04024168848991394,-0.03864308074116707,0.507247805595398,,,,,,,,0.5428854810406653,0.5271992065308614,0.5913786526283665,0.5817959868772412,91700.0,89300.0,92900.0,90900.0,28.950329065322876,0.10591287098496986,0.015930418860151063,0.00950637064164187,0.10591287098496986,-0.063,0.03,8.21219,28.9468834400177,0.036,-0.037,0.464,0.0,0.0,-0.0,1.0,0.0,0.0,0.0,0.0,0.0,0.296,0.0,0.0,0.006,28.95935559272766,3.5999999046325684,False,True,False,True,True,False,False
109,1.09,0.039,-0.037,0.506,-0.0027675412129610777,-0.0027675412129610777,0.0013837706064805388,0.9999913573265076,0.002782882,-0.005527403,-0.005542807,0.025,0.001,0.283,-0.046,-0.081,0.006,28.95935559272766,0.04034026712179184,-0.03888540342450142,0.5092135667800903,,,,,,,,0.5635309376668955,0.5322194247348745,0.5677424277103837,0.5695124742504005,91700.0,90100.0,93800.0,89800.0,28.95935559272766,0.5710688944838636,-0.00012207217517357137,0.006149385824368658,0.5710688944838636,-0.022,0.024,8.16419,28.958572387695312,0.036,-0.037,0.467,0.0,0.0,-0.0,1.0,0.0,0.0,0.0,0.0,0.0,0.281,0.0,0.0,0.005,28.971593141555786,3.5999999046325684,False,True,False,True,True,False,False
110,1.1,0.039,-0.037,0.509,-0.0027675412129610777,-0.0027675412129610777,0.0013837706064805388,0.9999913573265076,0.002782882,-0.005527403,-0.005542807,0.023,0.012,0.268,-0.01,-0.046,0.021,28.971593141555786,0.040720947086811066,-0.038980480283498764,0.511319637298584,,,,,,,,0.5738765545128557,0.523552300297551,0.5604486152437629,0.5812314030670634,91700.0,88500.0,93500.0,91700.0,28.971593141555786,0.9146410315098802,0.012588693064774548,0.007690547035934997,0.9146410315098802,-0.051,0.008,8.267190000000001,28.967501163482666,0.036,-0.037,0.469,0.0,0.0,-0.0,1.0,0.0,0.0,0.0,0.0,0.0,0.267,0.0,0.0,0.005,28.979263305664062,3.5940001010894775,False,True,False,True,True,False,False
111,1.11,0.04,-0.037,0.507,-0.0027675412129610777,-0.0027675412129610777,0.0013837706064805388,0.9999913573265076,0.002782882,-0.005527403,-0.005542807,0.021,0.01,0.242,0.021,-0.025,0.018,28.979263305664062,0.04097022861242294,-0.039076775312423706,0.5132977366447449,,,,,,,,0.6006866559853513,0.552651255054551,0.577981231403067,0.5890287632562753,92000.0,89000.0,93500.0,90600.0,28.979263305664062,0.3057907988097963,0.04310673685816739,0.004547188525215534,0.3057907988097963,-0.003,0.067,8.25619,28.97652769088745,0.036,-0.037,0.472,0.0,0.0,-0.0,1.0,0.0,0.0,0.0,0.0,0.0,0.252,0.0,0.0,0.005,28.98970341682434,3.5940001010894775,False,True,False,True,True,False,False
112,1.12,0.04,-0.038,0.511,-0.0027675412129610777,-0.0027675412129610777,0.0013837706064805388,0.9999913573265076,0.002782882,-0.005527403,-0.005542807,0.022,0.009,0.234,0.064,-0.034,0.012,28.98970341682434,0.04100910574197769,-0.03940003737807274,0.5146301984786987,,,,,,,,0.5865873197528039,0.5665369649805447,0.574013885709926,0.564461738002594,92600.0,89300.0,92600.0,92600.0,28.98970341682434,0.505455100328069,0.02606240939955749,0.010757610437170977,0.505455100328069,-0.085,0.032,8.25619,28.988765239715576,0.036,-0.037,0.474,0.0,0.0,-0.0,1.0,0.0,0.0,0.0,0.0,0.0,0.238,0.0,0.0,0.005,29.000646591186523,3.5940001010894775,False,True,False,True,True,False,False
113,1.1300000000000001,0.04,-0.038,0.513,-0.0027675412129610777,-0.0027675412129610777,0.0013837706064805388,0.9999913573265076,0.002782882,-0.005527403,-0.005542807,0.026,0.014,0.22,0.052,-0.049,0.008,29.000646591186523,0.04142189770936966,-0.03944109007716179,0.5162721872329712,,,,,,,,0.5857938506141757,0.5537193865873198,0.577981231403067,0.5825894560158694,92900.0,90900.0,93500.0,90900.0,29.000646591186523,0.6623483634699016,0.033035782406347754,0.005523765926604105,0.6623483634699016,-0.033,0.063,8.26619,28.996435403823853,0.036,-0.037,0.477,0.0,0.0,-0.0,1.0,0.0,0.0,0.0,0.0,0.0,0.224,0.0,0.0,0.004,29.009875059127808,3.5940001010894775,False,True,False,True,True,False,False
114,1.1400000000000001,0.041,-0.038,0.516,-0.0027675412129610777,-0.004151311703026295,0.0013837706064805388,0.9999865889549255,0.0027905817,-0.008294947,-0.0055467165,0.025,0.014,0.205,0.06,-0.028,0.019,29.009875059127808,0.04190260171890259,-0.03943313658237457,0.5178213119506836,,,,,,,,0.6026703288319218,0.5470359349965668,0.5688563363088426,0.591958495460441,93500.0,90400.0,92600.0,90900.0,29.009875059127808,0.20694285496299686,0.017074845502403294,0.009414816510261692,0.20694285496299686,-0.092,0.082,8.366190000000001,29.00687551498413,0.036,-0.037,0.479,0.0,0.0,-0.0,1.0,0.0,0.0,0.0,0.0,0.0,0.211,0.0,0.0,0.004,29.019678354263306,3.5999999046325684,False,True,False,True,True,False,False
115,1.1500000000000001,0.041,-0.038,0.509,-0.0027675412129610777,-0.004151311703026295,0.0013837706064805388,0.9999865889549255,0.0027905817,-0.008294947,-0.0055467165,0.024,0.016,0.173,0.058,-0.103,0.002,29.019678354263306,0.0419272780418396,-0.039798710495233536,0.5189911723136902,,,,,,,,0.6042420080872816,0.6158999008163577,0.6381170366979476,0.6035706111238269,93500.0,90600.0,93500.0,91700.0,29.019678354263306,0.8762035553521019,0.040665293354695965,0.006042572671091783,0.8762035553521019,-0.046,0.052,8.360190000000001,29.017818689346313,0.036,-0.037,0.481,0.0,0.0,-0.0,1.0,0.0,0.0,0.0,0.0,0.0,0.197,0.0,0.0,0.004,29.029472589492798,3.5999999046325684,False,True,False,True,True,False,False
116,1.16,0.041,-0.038,0.514,-0.0027675412129610777,-0.004151311703026295,0.0013837706064805388,0.9999865889549255,0.0027905817,-0.008294947,-0.0055467165,0.022,0.015,0.173,0.055,-0.094,0.003,29.029472589492798,0.04237516224384308,-0.039845723658800125,0.520112931728363,,,,,,,,0.5978179598687724,0.5847562371252003,0.6129854276340887,0.6016327153429465,93500.0,91500.0,94900.0,93200.0,29.029472589492798,0.5596246280613413,-0.02340733958953231,0.008026245517662317,0.5596246280613413,-0.059,0.032,8.53719,29.027047157287598,0.036,-0.037,0.483,0.0,0.0,-0.0,1.0,0.0,0.0,0.0,0.0,0.0,0.184,0.0,0.0,0.003,29.03957772254944,3.5999999046325684,False,True,False,True,True,False,False
117,1.17,0.041,-0.038,0.518,-0.0013837706064805388,-0.004151311703026295,0.0013837706064805388,0.9999894499778748,0.0027791006,-0.008298801,-0.0027791006,0.022,0.014,0.168,0.05,-0.037,0.003,29.03957772254944,0.04221317172050476,-0.04009554535150528,0.5209162831306458,,,,,,,,0.6163729304951553,0.5461203936827649,0.5795376516365301,0.6246433203631647,94600.0,92600.0,95500.0,92300.0,29.03957772254944,0.41985198748760205,-0.009430075532158388,0.005142290379186694,0.41985198748760205,-0.044,0.077,8.49619,29.036850452423096,0.036,-0.037,0.485,0.0,0.0,-0.0,1.0,0.0,0.0,0.0,0.0,0.0,0.171,0.0,0.0,0.003,29.049928426742554,3.5999999046325684,False,True,False,True,True,False,False
118,1.18,0.041,-0.039,0.519,-0.0013837706064805388,-0.004151311703026295,0.0013837706064805388,0.9999894499778748,0.0027791006,-0.008298801,-0.0027791006,0.023,0.009,0.156,0.059,0.006,0.02,29.049928426742554,0.042490359395742416,-0.040221139788627625,0.5217968225479126,,,,,,,,0.6258030060273136,0.5609826810101473,0.5805447470817121,0.6063019760433356,94600.0,93500.0,94600.0,92600.0,29.049928426742554,0.4690012970168612,0.02699320973525597,0.008667124437323568,0.4690012970168612,-0.055,0.038,8.51919,29.046644687652588,0.036,-0.037,0.486,0.0,0.0,-0.0,1.0,0.0,0.0,0.0,0.0,0.0,0.159,0.0,0.0,0.003,29.059514045715332,3.5940001010894775,False,True,False,True,True,False,False
119,1.19,0.042,-0.039,0.514,-0.0013837706064805388,-0.004151311703026295,0.0013837706064805388,0.9999894499778748,0.0027791006,-0.008298801,-0.0027791006,0.022,0.008,0.129,0.018,-0.025,0.018,29.059514045715332,0.042733222246170044,-0.04034017398953438,0.522594690322876,,,,,,,,0.6374151216906996,0.5859311818112459,0.6343938353551537,0.6487678339818418,95200.0,92900.0,95800.0,93500.0,29.059514045715332,0.9130846112764172,0.04762340733958953,0.007400625619897764,0.9130846112764172,-0.099,0.005,8.69119,29.05674982070923,0.036,-0.037,0.488,0.0,0.0,-0.0,1.0,0.0,0.0,0.0,0.0,0.0,0.146,0.0,0.0,0.003,29.069406747817993,3.5940001010894775,False,True,False,True,True,False,False
120,1.2,0.042,-0.039,0.518,-0.0,-0.005535082425922155,0.0013837706064805388,0.9999837279319763,0.0027676693,-0.011070211,-1.5319507e-05,0.02,0.008,0.133,-0.012,-0.046,0.004,29.069406747817993,0.04298495501279831,-0.04052691534161568,0.5236039161682129,,,,,,,,0.6032959487296864,0.5980468451972228,0.629602502479591,0.6047608148317692,97100.0,93500.0,96200.0,94600.0,29.069406747817993,0.7440909437705043,0.008651865415426872,0.00886549172198062,0.7440909437705043,-0.069,0.009,8.74919,29.067100524902344,0.036,-0.037,0.488,0.0,0.0,-0.0,1.0,0.0,0.0,0.0,0.0,0.0,0.146,0.0,0.0,0.003,29.069406747817993,3.5940001010894775,False,True,False,True,True,False,False
121,1.21,0.042,-0.039,0.518,-0.0,-0.005535082425922155,0.0013837706064805388,0.9999837279319763,0.0027676693,-0.011070211,-1.5319507e-05,0.02,0.008,0.133,-0.012,-0.046,0.004,29.069406747817993,0.04298495501279831,-0.04052691534161568,0.5236039161682129,,,,,,,,0.6032959487296864,0.5980468451972228,0.629602502479591,0.6047608148317692,97100.0,93500.0,96200.0,94600.0,29.069406747817993,0.7440909437705043,0.008651865415426872,0.00886549172198062,0.7440909437705043,-0.069,0.009,8.74919,29.067100524902344,0.036,-0.037,0.488,0.0,0.0,-0.0,1.0,0.0,0.0,0.0,0.0,0.0,0.146,0.0,0.0,0.003,29.069406747817993,3.5940001010894775,False,True,False,True,True,False,False
122,1.22,0.042,-0.039,0.521,-0.0,-0.005535082425922155,0.0013837706064805388,0.9999837279319763,0.0027676693,-0.011070211,-1.5319507e-05,0.015,0.002,0.13,-0.036,-0.05,-0.005,29.08235001564026,0.04345322400331497,-0.04052717238664627,0.5247900485992432,,,,,,,,0.5972228580148012,0.5909971770809491,0.6173647669184406,0.6019226367589837,96200.0,93500.0,95800.0,94300.0,29.08235001564026,0.08212405584802014,0.017669947356374456,0.007797360189211872,0.08212405584802014,-0.036,0.0,8.870190000000001,29.086578845977783,0.036,-0.037,0.492,0.0,0.0,-0.0,1.0,0.0,0.0,0.0,0.0,0.0,0.113,0.0,0.0,0.002,29.101168155670166,3.5889999866485596,False,True,False,True,True,False,False
123,1.23,0.042,-0.039,0.524,-0.0013837706064805388,-0.005535082425922155,0.0013837706064805388,0.9999827742576599,0.002782986,-0.011066371,-0.002782986,0.017,0.005,0.115,-0.057,0.007,0.02,29.101168155670166,0.04359601438045502,-0.04063238948583603,0.5252232551574707,,,,,,,,0.5989471274891279,0.5605859464408331,0.6257419699397269,0.624979018844892,96500.0,92900.0,97100.0,93500.0,29.101168155670166,0.4345769436179141,0.020279240100709545,0.005172808422980087,0.4345769436179141,-0.054,-0.013,9.007190000000001,29.09952211380005,0.036,-0.037,0.493,0.0,0.0,-0.0,1.0,0.0,0.0,0.0,0.0,0.0,0.102,0.0,0.0,0.002,29.10937261581421,3.5889999866485596,False,True,False,True,True,False,False
124,1.24,0.043,-0.039,0.517,-0.0013837706064805388,-0.005535082425922155,0.0013837706064805388,0.9999827742576599,0.002782986,-0.011066371,-0.002782986,0.012,0.005,0.09,-0.047,0.019,0.018,29.10937261581421,0.043820708990097046,-0.04069221019744873,0.5256075859069824,,,,,,,,0.6492408636606394,0.6079194323643854,0.6443579766536965,0.6450293736171512,97100.0,93800.0,96200.0,94600.0,29.10937261581421,0.2590524147402152,0.038452735179674985,0.010498207064927139,0.2590524147402152,-0.079,0.007,9.00319,29.10653591156006,0.036,-0.037,0.494,0.0,0.0,-0.0,1.0,0.0,0.0,0.0,0.0,0.0,0.092,0.0,0.0,0.001,29.12194585800171,3.5889999866485596,False,True,False,True,True,False,False
125,1.25,0.043,-0.039,0.521,-0.0013837706064805388,-0.005535082425922155,0.0027675412129610777,0.9999799132347107,0.005550658,-0.011062509,-0.0027982977,0.014,0.0,0.095,-0.042,0.023,0.01,29.12194585800171,0.04385678842663765,-0.04101352393627167,0.5259979963302612,,,,,,,,0.6417181658655681,0.5958495460440986,0.616235599298085,0.6284122987716487,98000.0,94900.0,99000.0,97100.0,29.12194585800171,0.9816128786144808,0.026886396581979097,0.009567406729228657,0.9816128786144808,-0.081,0.066,8.998190000000001,29.118340253829956,0.036,-0.037,0.494,0.0,0.0,-0.0,1.0,0.0,0.0,0.0,0.0,0.0,0.082,0.0,0.0,0.001,29.1297128200531,3.5889999866485596,False,True,False,True,True,False,False
126,1.26,0.043,-0.04,0.523,-0.0013837706064805388,-0.005535082425922155,0.0013837706064805388,0.9999827742576599,0.002782986,-0.011066371,-0.002782986,0.013,0.006,0.093,-0.027,-0.013,0.009,29.1297128200531,0.04389461502432823,-0.04111866652965546,0.5261251330375671,,,,,,,,0.614175631342031,0.591958495460441,0.6379797055008773,0.6189364461738003,98700.0,94300.0,98400.0,95200.0,29.1297128200531,0.8626688029297322,0.029190508888380255,0.009246967269398032,0.8626688029297322,-0.064,0.017,9.07119,29.126544713974,0.036,-0.037,0.495,0.0,0.0,-0.0,1.0,0.0,0.0,0.0,0.0,0.0,0.074,0.0,0.0,0.001,29.139862537384033,3.578000068664551,False,True,False,True,True,False,False
127,1.27,0.043,-0.04,0.525,-0.0013837706064805388,-0.005535082425922155,0.0027675412129610777,0.9999799132347107,0.005550658,-0.011062509,-0.0027982977,0.012,-0.001,0.091,-0.032,0.01,0.0,29.139862537384033,0.04415292292833328,-0.04113854840397835,0.526576578617096,,,,,,,,0.6362249179827573,0.5845273517967499,0.6042420080872816,0.6254215304798962,97700.0,95500.0,99700.0,95500.0,29.139862537384033,0.6377355611505302,-0.0025787747005416952,0.010727092393377585,0.6377355611505302,-0.056,0.024,9.148190000000001,29.1391179561615,0.036,-0.037,0.496,0.0,0.0,-0.0,1.0,0.0,0.0,0.0,0.0,0.0,0.065,0.0,0.0,0.001,29.149866819381714,3.578000068664551,False,True,False,True,True,False,False
128,1.28,0.043,-0.04,0.518,-0.0013837706064805388,-0.005535082425922155,0.0027675412129610777,0.9999799132347107,0.005550658,-0.011062509,-0.0027982977,0.01,0.002,0.069,-0.019,-0.012,-0.018,29.149866819381714,0.04435952752828598,-0.04123685881495476,0.5266723036766052,,,,,,,,0.6438696879530023,0.6415808346684978,0.6569924467841611,0.6389562829022659,98400.0,93800.0,98000.0,95500.0,29.149866819381714,0.8293430991073473,0.018204013122758832,0.008117799649042497,0.8293430991073473,-0.053,0.032,9.38719,29.14688491821289,0.036,-0.037,0.496,0.0,0.0,-0.0,1.0,0.0,0.0,0.0,0.0,0.0,0.057,0.0,0.0,0.001,29.15939736366272,3.578000068664551,False,True,False,True,True,False,False
129,1.29,0.043,-0.041,0.522,-0.0013837706064805388,-0.005535082425922155,0.0027675412129610777,0.9999799132347107,0.005550658,-0.011062509,-0.0027982977,0.011,-0.008,0.079,-0.068,-0.003,-0.001,29.15939736366272,0.04446224123239517,-0.041350264102220535,0.5269944667816162,,,,,,,,0.6267795834287022,0.5964751659418631,0.6417029068436714,0.6441748683909362,98700.0,95800.0,99000.0,96200.0,29.15939736366272,0.19685664148928053,-0.013595788509956512,0.006332494087129015,0.19685664148928053,-0.056,0.037,9.35319,29.157034635543823,0.036,-0.037,0.497,0.0,0.0,-0.0,1.0,0.0,0.0,0.0,0.0,0.0,0.05,0.0,0.0,0.001,29.16952347755432,3.578000068664551,False,True,False,True,True,False,False
130,1.3,0.043,-0.041,0.524,-0.0013837706064805388,-0.005535082425922155,0.0027675412129610777,0.9999799132347107,0.005550658,-0.011062509,-0.0027982977,0.008,-0.006,0.08,-0.085,0.032,0.001,29.16952347755432,0.04455485939979553,-0.04140503704547882,0.5271369814872742,,,,,,,,0.6327611200122072,0.5927824826428626,0.6270847638666361,0.6317845426108186,98700.0,95200.0,99000.0,96500.0,29.16952347755432,0.5826962691691463,0.02887006942854963,0.007095445181963836,0.5826962691691463,-0.072,0.034,9.38019,29.167038917541504,0.036,-0.037,0.497,0.0,0.0,-0.0,1.0,0.0,0.0,0.0,0.0,0.0,0.043,0.0,0.0,0.0,29.179364681243896,3.578000068664551,False,True,False,True,True,False,False
131,1.31,0.044,-0.041,0.526,-0.0013837706064805388,-0.005535082425922155,0.0027675412129610777,0.9999799132347107,0.005550658,-0.011062509,-0.0027982977,0.009,-0.008,0.08,-0.097,0.031,0.007,29.179364681243896,0.04474980756640434,-0.04139101132750511,0.527137279510498,,,,,,,,0.6264591439688716,0.6002136263065537,0.6248416876478218,0.6180666819256886,98000.0,96200.0,99300.0,96800.0,29.179364681243896,0.00247196154726482,0.016235599298084994,0.009063859006637675,0.00247196154726482,-0.096,0.02,9.421190000000001,29.17656946182251,0.036,-0.037,0.498,0.0,0.0,-0.0,1.0,0.0,0.0,0.0,0.0,0.0,0.037,0.0,0.0,0.0,29.18950319290161,3.578000068664551,False,True,False,True,True,False,False
132,1.32,0.044,-0.041,0.527,-0.0027675412129610777,-0.005535082425922155,0.0027675412129610777,0.9999769926071167,0.0055659614,-0.011054817,-0.0055659614,0.006,-0.005,0.077,-0.115,0.04,-0.002,29.18950319290161,0.044775497168302536,-0.0414673276245594,0.5272637605667114,,,,,,,,0.6176394293125811,0.5967650873579003,0.6334782940413519,0.6231021591515984,98000.0,94900.0,99300.0,97400.0,29.18950319290161,0.05227740901808194,0.008819714656290532,0.006378271152819104,0.05227740901808194,-0.08,0.024,9.53119,29.18669557571411,0.036,-0.037,0.498,0.0,0.0,-0.0,1.0,0.0,0.0,0.0,0.0,0.0,0.031,0.0,0.0,0.0,29.199647188186646,3.578000068664551,False,True,False,True,True,False,False
133,1.33,0.044,-0.041,0.523,-0.0027675412129610777,-0.004151311703026295,0.0027675412129610777,0.9999837279319763,0.00555819,-0.008287265,-0.00555819,0.007,-0.006,0.055,-0.061,-0.048,0.001,29.199647188186646,0.04493589699268341,-0.041561417281627655,0.5274141430854797,,,,,,,,0.6453955901426719,0.6500343327992676,0.6648661020828565,0.6218356603341726,99700.0,96200.0,98000.0,97400.0,29.199647188186646,0.14265659571221484,0.023804074158846417,0.010406652933546959,0.14265659571221484,-0.052,0.051,9.61119,29.196536779403687,0.036,-0.037,0.499,0.0,0.0,-0.0,1.0,0.0,0.0,0.0,0.0,0.0,0.026,0.0,0.0,0.0,29.209064483642578,3.578000068664551,False,True,False,True,True,False,False
134,1.34,0.044,-0.041,0.525,-0.0027675412129610777,-0.005535082425922155,0.0027675412129610777,0.9999769926071167,0.0055659614,-0.011054817,-0.0055659614,0.004,-0.006,0.059,-0.067,-0.017,-0.001,29.209064483642578,0.04505964741110802,-0.041575588285923004,0.5274586081504822,,,,,,,,0.6384222171358815,0.6257267109178302,0.6540169375143053,0.6338139925230792,98000.0,97700.0,101000.0,97100.0,29.209064483642578,0.25764858472571905,-0.01095597772182803,0.009430075532158388,0.25764858472571905,-0.069,0.094,9.57119,29.2066752910614,0.036,-0.037,0.499,0.0,0.0,-0.0,1.0,0.0,0.0,0.0,0.0,0.0,0.021,0.0,0.0,0.0,29.220102548599243,3.568000078201294,False,True,False,True,True,False,False
135,1.35,0.044,-0.041,0.526,-0.004151311703026295,-0.005535082425922155,0.0027675412129610777,0.9999722242355347,0.005581254,-0.011047104,-0.008333634,0.005,-0.005,0.059,-0.053,0.038,0.007,29.220102548599243,0.0451384112238884,-0.041554275900125504,0.5274478197097778,,,,,,,,0.6663157091630426,0.596734569314107,0.6280155642023346,0.6549324788281071,100000.0,96500.0,100700.0,98000.0,29.220102548599243,0.33069352254520484,0.002532997634851606,0.0050354772259098195,0.33069352254520484,-0.05,0.057,9.533190000000001,29.216819286346436,0.036,-0.037,0.499,0.0,0.0,-0.0,1.0,0.0,0.0,0.0,0.0,0.0,0.017,0.0,0.0,0.0,29.229849338531494,3.568000078201294,False,True,False,True,True,False,False
136,1.36,0.044,-0.041,0.527,-0.004151311703026295,-0.005535082425922155,0.0027675412129610777,0.9999722242355347,0.005581254,-0.011047104,-0.008333634,0.004,-0.001,0.058,-0.028,0.075,0.01,29.229849338531494,0.04519304633140564,-0.041590332984924316,0.5276221036911011,,,,,,,,0.6638132295719844,0.600701915007248,0.6303654535744259,0.6538033112077516,100700.0,98000.0,100000.0,97100.0,29.229849338531494,0.9441824979018845,0.03526359960326543,0.009750514991989014,0.9441824979018845,-0.071,0.049,9.65719,29.226236581802368,0.036,-0.037,0.499,0.0,0.0,-0.0,1.0,0.0,0.0,0.0,0.0,0.0,0.014,0.0,0.0,0.0,29.239766597747803,3.568000078201294,False,True,False,True,True,False,False
137,1.37,0.044,-0.041,0.52,-0.004151311703026295,-0.004151311703026295,0.0027675412129610777,0.9999789595603943,0.0055696527,-0.008279566,-0.008325808,0.003,-0.001,0.041,-0.05,0.052,0.006,29.239766597747803,0.04545840248465538,-0.04156908020377159,0.5275542736053467,,,,,,,,0.6727092393377585,0.6334630350194552,0.6889448386358434,0.6844281681544213,100000.0,97100.0,100000.0,98700.0,29.239766597747803,0.11848630502784771,0.0340886549172198,0.010574502174410621,0.11848630502784771,-0.107,0.102,9.80019,29.237274646759033,0.036,-0.037,0.499,0.0,0.0,-0.0,1.0,0.0,0.0,0.0,0.0,0.0,0.014,0.0,0.0,0.0,29.239766597747803,3.568000078201294,False,True,False,True,True,False,False
138,1.3800000000000001,0.044,-0.041,0.523,-0.004151311703026295,-0.004151311703026295,0.0027675412129610777,0.9999789595603943,0.0055696527,-0.008279566,-0.008325808,0.002,-0.008,0.055,-0.023,0.047,-0.015,29.253087282180786,0.04553792625665665,-0.04162504896521568,0.527818500995636,,,,,,,,0.6631723506523232,0.6468757152666514,0.6496528572518502,0.6441596093690395,103100.0,98000.0,102000.0,99700.0,29.253087282180786,0.6463111314564737,0.03341725795376516,0.0059662775616083005,0.6463111314564737,-0.042,0.116,9.85519,29.256938695907593,0.036,-0.037,0.499,0.0,0.0,-0.0,1.0,0.0,0.0,0.0,0.0,0.0,0.005,0.0,0.0,0.0,29.2696795463562,3.562999963760376,False,True,False,True,True,False,False
139,1.3900000000000001,0.044,-0.041,0.523,-0.004151311703026295,-0.004151311703026295,0.0027675412129610777,0.9999789595603943,0.0055696527,-0.008279566,-0.008325808,0.002,-0.008,0.055,-0.023,0.047,-0.015,29.253087282180786,0.04553792625665665,-0.04162504896521568,0.527818500995636,,,,,,,,0.6631723506523232,0.6468757152666514,0.6496528572518502,0.6441596093690395,103100.0,98000.0,102000.0,99700.0,29.253087282180786,0.6463111314564737,0.03341725795376516,0.0059662775616083005,0.6463111314564737,-0.042,0.116,9.85519,29.256938695907593,0.036,-0.037,0.499,0.0,0.0,-0.0,1.0,0.0,0.0,0.0,0.0,0.0,0.005,0.0,0.0,0.0,29.2696795463562,3.562999963760376,False,True,False,True,True,False,False
140,1.4000000000000001,0.045,-0.041,0.526,-0.004151311703026295,-0.004151311703026295,0.0027675412129610777,0.9999789595603943,0.0055696527,-0.008279566,-0.008325808,0.001,0.0,0.066,-0.042,-0.02,-0.004,29.2696795463562,0.0456484779715538,-0.04160299524664879,0.5279837846755981,,,,,,,,0.6360418097199969,0.6115053025101091,0.6542610818646525,0.6520027466239414,102000.0,97400.0,102700.0,100000.0,29.2696795463562,0.45932707713435567,-0.017181658655680172,0.009445334554055084,0.45932707713435567,-0.019,0.135,9.97119,29.270259380340576,0.036,-0.037,0.499,0.0,0.0,-0.0,1.0,0.0,0.0,0.0,0.0,0.0,0.004,0.0,0.0,0.0,29.279470920562744,3.562999963760376,False,True,False,True,True,False,False
141,1.41,0.044,-0.041,0.527,-0.004151311703026295,-0.004151311703026295,0.0027675412129610777,0.9999789595603943,0.0055696527,-0.008279566,-0.008325808,0.0,0.0,0.068,-0.018,0.019,0.006,29.279470920562744,0.04585471749305725,-0.041586149483919144,0.5281282663345337,,,,,,,,0.651621271076524,0.6165255207141223,0.6419775692378119,0.6384374761577782,99700.0,98000.0,103100.0,100300.0,29.279470920562744,0.44478522926680397,0.026245517662317846,0.007415884641794461,0.44478522926680397,-0.018,0.091,10.113190000000001,29.279372215270996,0.036,-0.037,0.499,0.0,0.0,-0.0,1.0,0.0,0.0,0.0,0.0,0.0,0.002,0.0,0.0,0.0,29.289639234542847,3.562999963760376,False,True,False,True,True,False,False
142,1.42,0.045,-0.041,0.524,-0.004151311703026295,-0.004151311703026295,0.0027675412129610777,0.9999789595603943,0.0055696527,-0.008279566,-0.008325808,0.0,0.0,0.071,-0.036,0.074,-0.02,29.289639234542847,0.0456717349588871,-0.041513025760650635,0.528343141078949,,,,,,,,0.6586251621271076,0.6021667811093309,0.6368047608148317,0.6766613260090029,102000.0,99000.0,102000.0,99300.0,29.289639234542847,0.10850690470740826,0.02746623941405356,0.010559243152513925,0.10850690470740826,-0.071,0.045,10.15019,29.28685164451599,0.036,-0.037,0.499,0.0,0.0,-0.0,1.0,0.0,0.0,0.0,0.0,0.0,0.001,0.0,0.0,0.0,29.299551248550415,3.568000078201294,False,True,False,True,True,False,False
143,1.43,0.044,-0.04,0.526,-0.005535082425922155,-0.004151311703026295,0.0027675412129610777,0.9999722242355347,0.005581104,-0.00827185,-0.011093442,-0.001,0.002,0.079,-0.013,0.08,-0.013,29.299551248550415,0.04582027345895767,-0.04142933711409569,0.5285066962242126,,,,,,,,0.6534218356603342,0.5950102998397803,0.6276646066987106,0.6561684596017395,102000.0,98700.0,102000.0,100300.0,29.299551248550415,0.7532158388647288,0.048172732127870606,0.004150453955901427,0.7532158388647288,-0.085,0.107,10.11219,29.296643018722534,0.036,-0.037,0.499,0.0,0.0,-0.0,1.0,0.0,0.0,0.0,0.0,0.0,0.001,0.0,0.0,0.0,29.299551248550415,3.568000078201294,False,True,False,True,True,False,False
144,1.44,0.044,-0.04,0.526,-0.005535082425922155,-0.004151311703026295,0.0027675412129610777,0.9999722242355347,0.005581104,-0.00827185,-0.011093442,-0.001,0.002,0.079,-0.013,0.08,-0.013,29.299551248550415,0.04582027345895767,-0.04142933711409569,0.5285066962242126,,,,,,,,0.6534218356603342,0.5950102998397803,0.6276646066987106,0.6561684596017395,102000.0,98700.0,102000.0,100300.0,29.299551248550415,0.7532158388647288,0.048172732127870606,0.004150453955901427,0.7532158388647288,-0.085,0.107,10.11219,29.296643018722534,0.036,-0.037,0.499,0.0,0.0,-0.0,1.0,0.0,0.0,0.0,0.0,0.0,0.001,0.0,0.0,0.0,29.299551248550415,3.568000078201294,False,True,False,True,True,False,False
145,1.45,0.044,-0.04,0.527,-0.005535082425922155,-0.004151311703026295,0.0027675412129610777,0.9999722242355347,0.005581104,-0.00827185,-0.011093442,-0.004,0.009,0.083,0.001,0.039,0.017,29.31225848197937,0.04592210054397583,-0.04128658026456833,0.5290521383285522,,,,,,,,0.6275272755016403,0.5927672236209659,0.6496833752956436,0.646295872434577,101000.0,97400.0,100000.0,100000.0,29.31225848197937,0.039658197909514,0.015701533531700618,0.009536888685435264,0.039658197909514,-0.049,0.05,10.04519,29.316723346710205,0.036,-0.037,0.5,0.0,0.0,-0.0,1.0,0.0,0.0,0.0,0.0,0.0,0.0,0.0,0.0,0.0,29.32954454421997,3.568000078201294,False,True,False,True,True,False,False
146,1.46,0.044,-0.041,0.525,-0.004151311703026295,-0.0027675412129610777,0.0027675412129610777,0.9999837279319763,0.0055580838,-0.0055120424,-0.008318029,-0.001,0.0,0.068,0.041,0.034,0.001,29.32954454421997,0.04613814130425453,-0.041080888360738754,0.5292280316352844,,,,,,,,0.6742656595712215,0.6376745250629434,0.6430457007705807,0.647348744945449,100700.0,96800.0,101700.0,99300.0,29.32954454421997,0.7518730449378195,0.023483634699015793,0.011917296101319905,0.7518730449378195,-0.042,0.12,10.097190000000001,29.32943058013916,0.036,-0.037,0.5,0.0,0.0,-0.0,1.0,0.0,0.0,0.0,0.0,0.0,0.0,0.0,0.0,0.0,29.33979034423828,3.568000078201294,False,True,False,True,True,False,False
147,1.47,0.045,-0.04,0.527,-0.004151311703026295,-0.0027675412129610777,0.0027675412129610777,0.9999837279319763,0.0055580838,-0.0055120424,-0.008318029,0.0,0.004,0.076,0.055,0.029,0.018,29.33979034423828,0.045982930809259415,-0.04105670005083084,0.5296459197998047,,,,,,,,0.6637064164187075,0.6116426337071794,0.6385900663767452,0.6413366903181507,101700.0,98400.0,100000.0,99000.0,29.33979034423828,0.5493095292591745,0.020462348363469902,0.008072022583352408,0.5493095292591745,-0.028,0.105,10.00019,29.33695125579834,0.036,-0.037,0.5,0.0,0.0,-0.0,1.0,0.0,0.0,0.0,0.0,0.0,0.0,0.0,0.0,0.0,29.349929094314575,3.568000078201294,False,True,False,True,True,False,False
148,1.48,0.045,-0.04,0.528,-0.004151311703026295,-0.0027675412129610777,0.0027675412129610777,0.9999837279319763,0.0055580838,-0.0055120424,-0.008318029,-0.003,0.003,0.079,-0.013,0.007,0.009,29.349929094314575,0.04603583365678787,-0.04094913974404335,0.5299931168556213,,,,,,,,0.6239108873121233,0.595071335927367,0.6654459449149309,0.6511940184634165,102700.0,98700.0,101000.0,98000.0,29.349929094314575,0.5395437552452887,0.02374303807125963,0.01211566338597696,0.5395437552452887,-0.047,0.084,9.93219,29.34671664237976,0.036,-0.037,0.5,0.0,0.0,-0.0,1.0,0.0,0.0,0.0,0.0,0.0,0.0,0.0,0.0,0.0,29.359856605529785,3.568000078201294,False,True,False,True,True,False,False
149,1.49,0.045,-0.04,0.529,-0.004151311703026295,-0.0027675412129610777,0.0027675412129610777,0.9999837279319763,0.0055580838,-0.0055120424,-0.008318029,-0.001,0.006,0.081,-0.044,0.015,-0.013,29.359856605529785,0.045928142964839935,-0.040937911719083786,0.5302985310554504,,,,,,,,0.6310368505378805,0.5909056229495689,0.6451056687266347,0.6587472343022812,101400.0,96500.0,100700.0,98700.0,29.359856605529785,0.279316395819028,-0.0032806897077897307,0.008529793240253299,0.279316395819028,-0.036,0.046,9.943190000000001,29.35696244239807,0.036,-0.037,0.5,0.0,0.0,-0.0,1.0,0.0,0.0,0.0,0.0,0.0,0.0,0.0,0.0,0.0,29.369431257247925,3.568000078201294,False,True,False,True,True,False,False
150,1.5,0.045,-0.04,0.522,-0.004151311703026295,-0.0027675412129610777,0.0027675412129610777,0.9999837279319763,0.0055580838,-0.0055120424,-0.008318029,-0.003,0.01,0.065,-0.016,0.031,-0.002,29.369431257247925,0.04614562541246414,-0.04065341874957085,0.5307098627090454,,,,,,,,0.6718852521553369,0.6361486228732738,0.6679179064621957,0.6695963988708323,99700.0,95500.0,102400.0,100300.0,29.369431257247925,0.650919356069276,0.020202944991226063,0.007446402685587854,0.650919356069276,0.009,0.062,10.02819,29.367101192474365,0.036,-0.037,0.5,0.0,0.0,-0.0,1.0,0.0,0.0,0.0,0.0,0.0,0.0,0.0,0.0,0.0,29.380215406417847,3.562999963760376,False,True,False,True,True,False,False
151,1.51,0.045,-0.039,0.526,-0.005535082425922155,-0.0027675412129610777,0.0027675412129610777,0.9999769926071167,0.0055657057,-0.005504346,-0.011085624,-0.001,0.015,0.081,0.066,0.04,0.004,29.380215406417847,0.04626411944627762,-0.04046441614627838,0.5309614539146423,,,,,,,,0.6650492103456168,0.6236057068741894,0.6301365682459754,0.6323949034866865,101000.0,97400.0,103100.0,99000.0,29.380215406417847,0.3154650186923018,0.02677958342870222,0.008621347371633479,0.3154650186923018,0.04,0.093,9.90319,29.377028703689575,0.036,-0.037,0.5,0.0,0.0,-0.0,1.0,0.0,0.0,0.0,0.0,0.0,0.0,0.0,0.0,0.0,29.389413118362427,3.562999963760376,False,True,False,True,True,False,False
152,1.52,0.045,-0.039,0.528,-0.005535082425922155,-0.0013837706064805388,0.0027675412129610777,0.9999799132347107,0.005550339,-0.0027368518,-0.01107787,-0.002,0.012,0.088,0.113,-0.005,0.008,29.389413118362427,0.046304069459438324,-0.040295373648405075,0.5313042998313904,,,,,,,,0.6420996414129855,0.6209201190203708,0.6314183260852979,0.6112764171816587,103100.0,97100.0,100300.0,99000.0,29.389413118362427,0.2755168993667506,0.036575875486381325,0.008392462043183032,0.2755168993667506,-0.017,0.126,9.95119,29.386603355407715,0.036,-0.037,0.5,0.0,0.0,-0.0,1.0,0.0,0.0,0.0,0.0,0.0,0.0,0.0,0.0,0.0,29.40006160736084,3.562999963760376,False,True,False,True,True,False,False
153,1.53,0.045,-0.039,0.53,-0.004151311703026295,-0.0013837706064805388,0.0027675412129610777,0.9999865889549255,0.0055465465,-0.0027445299,-0.008310298,-0.001,0.012,0.093,0.068,-0.012,0.005,29.40006160736084,0.046385765075683594,-0.040142882615327835,0.5317174792289734,,,,,,,,0.620004577706569,0.5816128786144809,0.6370641641870756,0.6346837567711909,101000.0,97100.0,100000.0,97100.0,29.40006160736084,0.3662012664988174,0.003341725795376516,0.010742351415274281,0.3662012664988174,0.022,0.16,9.97619,29.397387504577637,0.036,-0.037,0.5,0.0,0.0,-0.0,1.0,0.0,0.0,0.0,0.0,0.0,0.0,0.0,0.0,0.0,29.41152024269104,3.562999963760376,False,True,False,True,True,False,False
154,1.54,0.046,-0.039,0.531,-0.004151311703026295,-0.0013837706064805388,0.0027675412129610777,0.9999865889549255,0.0055465465,-0.0027445299,-0.008310298,0.008,0.024,0.094,0.014,-0.027,0.011,29.41152024269104,0.046337492763996124,-0.040002793073654175,0.5322432518005371,,,,,,,,0.6255588616769665,0.5621118486305028,0.6297093156328679,0.6454261081864653,100000.0,97100.0,100000.0,98400.0,29.41152024269104,0.2948043030441749,0.0191958495460441,0.011017013809414817,0.2948043030441749,0.024,0.133,10.00219,29.406585216522217,0.036,-0.037,0.5,0.0,0.0,-0.0,1.0,0.0,0.0,0.0,0.0,0.0,0.0,0.0,0.0,0.0,29.420024871826172,3.5840001106262207,False,True,False,True,True,False,False
155,1.55,0.046,-0.039,0.528,-0.004151311703026295,-0.0013837706064805388,0.0027675412129610777,0.9999865889549255,0.0055465465,-0.0027445299,-0.008310298,0.007,0.02,0.076,0.036,-0.003,-0.019,29.420024871826172,0.046403054147958755,-0.039834633469581604,0.5326375961303711,,,,,,,,0.6659647516594186,0.591958495460441,0.6221713588158999,0.6705424582284275,99300.0,96800.0,100300.0,99000.0,29.420024871826172,0.6193179217212177,0.012161440451667048,0.012512397955291066,0.6193179217212177,-0.011,0.052,9.898190000000001,29.41723370552063,0.036,-0.037,0.5,0.0,0.0,-0.0,1.0,0.0,0.0,0.0,0.0,0.0,0.0,0.0,0.0,0.0,29.429652214050293,3.5840001106262207,False,True,False,True,True,False,False
156,1.56,0.046,-0.039,0.53,-0.004151311703026295,-0.0013837706064805388,0.0027675412129610777,0.9999865889549255,0.0055465465,-0.0027445299,-0.008310298,0.007,0.024,0.082,0.104,-0.019,0.009,29.429652214050293,0.04661034047603607,-0.03952385112643242,0.5329206585884094,,,,,,,,0.6508888380254826,0.6091401541161211,0.6261692225528344,0.6216525520714122,100700.0,97400.0,99700.0,98400.0,29.429652214050293,0.24074158846417945,0.034271763179980166,0.006240939955748837,0.24074158846417945,-0.008,0.116,9.78219,29.42869234085083,0.036,-0.037,0.5,0.0,0.0,-0.0,1.0,0.0,0.0,0.0,0.0,0.0,0.0,0.0,0.0,0.0,29.439854621887207,3.5840001106262207,False,True,False,True,True,False,False
157,1.57,0.046,-0.038,0.531,-0.004151311703026295,-0.0013837706064805388,0.0027675412129610777,0.9999865889549255,0.0055465465,-0.0027445299,-0.008310298,0.007,0.028,0.082,0.118,-0.029,0.0,29.439854621887207,0.04647887498140335,-0.039416953921318054,0.5334634184837341,,,,,,,,0.6329900053406576,0.6021667811093309,0.6334477759975585,0.6247196154726482,101000.0,97100.0,100700.0,98700.0,29.439854621887207,0.5034103913939116,0.023193713282978562,0.011108567940794995,0.5034103913939116,-0.034,0.101,9.72019,29.437196969985962,0.036,-0.037,0.5,0.0,0.0,-0.0,1.0,0.0,0.0,0.0,0.0,0.0,0.0,0.0,0.0,0.0,29.439854621887207,3.5840001106262207,False,True,False,True,True,False,False
158,1.58,0.046,-0.038,0.531,-0.004151311703026295,-0.0013837706064805388,0.0027675412129610777,0.9999865889549255,0.0055465465,-0.0027445299,-0.008310298,0.007,0.028,0.082,0.118,-0.029,0.0,29.439854621887207,0.04647887498140335,-0.039416953921318054,0.5334634184837341,,,,,,,,0.6329900053406576,0.6021667811093309,0.6334477759975585,0.6247196154726482,101000.0,97100.0,100700.0,98700.0,29.439854621887207,0.5034103913939116,0.023193713282978562,0.011108567940794995,0.5034103913939116,-0.034,0.101,9.72019,29.437196969985962,0.036,-0.037,0.5,0.0,0.0,-0.0,1.0,0.0,0.0,0.0,0.0,0.0,0.0,0.0,0.0,0.0,29.439854621887207,3.5840001106262207,False,True,False,True,True,False,False
159,1.59,0.046,-0.038,0.532,-0.0027675412129610777,-0.0013837706064805388,0.0027675412129610777,0.9999913573265076,0.005542743,-0.002752202,-0.005542743,0.007,0.022,0.083,0.133,-0.079,-0.014,29.453628540039062,0.046480730175971985,-0.03907904028892517,0.5342556238174438,,,,,,,,0.6360265506981002,0.602914473182269,0.6180819409475853,0.6223849851224537,100000.0,97100.0,99300.0,97400.0,29.453628540039062,0.6851758602273594,0.012207217517357137,0.010406652933546959,0.6851758602273594,0.022,0.052,9.77419,29.457026720046997,0.036,-0.037,0.5,0.0,0.0,-0.0,1.0,0.0,0.0,0.0,0.0,0.0,0.0,0.0,0.0,0.0,29.470092058181763,3.572999954223633,False,True,False,True,True,False,False
160,1.6,0.046,-0.038,0.53,-0.0027675412129610777,-0.0027675412129610777,0.0027675412129610777,0.9999884963035583,0.00555045,-0.005519728,-0.00555045,0.001,0.036,0.079,0.088,-0.067,-0.012,29.470092058181763,0.04646609351038933,-0.03893737122416496,0.534622073173523,,,,,,,,0.6257572289616236,0.6015869382772564,0.6462043183031968,0.6425421530479897,99300.0,98000.0,100300.0,98400.0,29.470092058181763,0.054474708171206226,0.0036621652552071412,0.007095445181963836,0.054474708171206226,0.039,0.027,9.767190000000001,29.470800638198853,0.036,-0.037,0.5,0.0,0.0,-0.0,1.0,0.0,0.0,0.0,0.0,0.0,0.0,0.0,0.0,0.0,29.470092058181763,3.572999954223633,False,True,False,True,True,False,False
161,1.61,0.046,-0.038,0.53,-0.0027675412129610777,-0.0027675412129610777,0.0027675412129610777,0.9999884963035583,0.00555045,-0.005519728,-0.00555045,0.001,0.036,0.079,0.088,-0.067,-0.012,29.470092058181763,0.04646609351038933,-0.03893737122416496,0.534622073173523,,,,,,,,0.6257572289616236,0.6015869382772564,0.6462043183031968,0.6425421530479897,99300.0,98000.0,100300.0,98400.0,29.470092058181763,0.054474708171206226,0.0036621652552071412,0.007095445181963836,0.054474708171206226,0.039,0.027,9.767190000000001,29.470800638198853,0.036,-0.037,0.5,0.0,0.0,-0.0,1.0,0.0,0.0,0.0,0.0,0.0,0.0,0.0,0.0,0.0,29.470092058181763,3.572999954223633,False,True,False,True,True,False,False
162,1.62,0.046,-0.038,0.532,-0.0027675412129610777,-0.0027675412129610777,0.0027675412129610777,0.9999884963035583,0.00555045,-0.005519728,-0.00555045,0.001,0.05,0.084,0.094,-0.011,0.0,29.484211921691895,0.04657377302646637,-0.038455892354249954,0.5352473258972168,,,,,,,,0.628549629968719,0.5680018310826276,0.6275120164797436,0.6529640650034333,99000.0,95500.0,101000.0,98000.0,29.484211921691895,0.5314259555962463,0.018478675516899367,0.007400625619897764,0.5314259555962463,-0.056,0.029,9.66319,29.487264156341553,0.036,-0.037,0.5,0.0,0.0,-0.0,1.0,0.0,0.0,0.0,0.0,0.0,0.0,0.0,0.0,0.0,29.499908924102783,3.5840001106262207,False,True,False,True,True,False,False
163,1.6300000000000001,0.046,-0.037,0.534,-0.0013837706064805388,-0.0027675412129610777,0.0027675412129610777,0.9999913573265076,0.005542807,-0.005527403,-0.002782882,0.0,0.049,0.085,0.245,0.019,0.007,29.499908924102783,0.046596452593803406,-0.0382622629404068,0.535597026348114,,,,,,,,0.6429236285954071,0.6045624475471122,0.6042267490653849,0.6015106431677729,98000.0,95500.0,100000.0,97100.0,29.499908924102783,0.7173113603418021,0.03927672236209659,0.008728160524910353,0.7173113603418021,-0.049,0.003,9.745190000000001,29.501384019851685,0.036,-0.037,0.5,0.0,0.0,-0.0,1.0,0.0,0.0,0.0,0.0,0.0,0.0,0.0,0.0,0.0,29.5106303691864,3.5840001106262207,False,True,False,True,True,False,False
164,1.6400000000000001,0.045,-0.037,0.532,-0.0,-0.0027675412129610777,0.0027675412129610777,0.999992311000824,0.005535153,-0.0055350685,-1.5318803e-05,-0.002,0.044,0.081,0.262,0.042,-0.01,29.5106303691864,0.04665042459964752,-0.03806113824248314,0.5358706712722778,,,,,,,,0.6654001678492408,0.6022278171969176,0.5945372701609827,0.6306706340123598,99700.0,97100.0,98700.0,96200.0,29.5106303691864,0.009002822919050888,0.028473334859235522,0.00886549172198062,0.009002822919050888,-0.065,0.044,9.693190000000001,29.506420612335205,0.036,-0.037,0.5,0.0,0.0,-0.0,1.0,0.0,0.0,0.0,0.0,0.0,0.0,0.0,0.0,0.0,29.519745349884033,3.5840001106262207,False,True,False,True,True,False,False
165,1.6500000000000001,0.046,-0.037,0.533,0.0013837706064805388,-0.0027675412129610777,0.0027675412129610777,0.9999913573265076,0.0055274884,-0.005542722,0.0027522442,0.002,0.042,0.085,0.211,0.003,0.005,29.519745349884033,0.046593014150857925,-0.03786039724946022,0.5361537337303162,,,,,,,,0.6318608377203021,0.5705500877393759,0.6198672465094988,0.6404058899824521,100700.0,97100.0,99000.0,95500.0,29.519745349884033,0.5440451667048142,0.03700312809948882,0.008346684977492943,0.5440451667048142,-0.015,0.019,9.639190000000001,29.517081022262573,0.036,-0.037,0.5,0.0,0.0,-0.0,1.0,0.0,0.0,0.0,0.0,0.0,0.0,0.0,0.0,0.0,29.53069019317627,3.5840001106262207,False,True,False,True,True,False,False
166,1.6600000000000001,0.046,-0.037,0.535,0.0027675412129610777,-0.0027675412129610777,0.0027675412129610777,0.9999884963035583,0.0055198134,-0.0055503654,0.0055198134,0.002,0.045,0.086,0.132,-0.03,0.0,29.53069019317627,0.04648815840482712,-0.03778180107474327,0.536451518535614,,,,,,,,0.6146486610208286,0.5757381551842526,0.6262760357061112,0.6286259250782025,99300.0,96200.0,98700.0,96200.0,29.53069019317627,0.61191729610132,0.03479056992446784,0.00874341954680705,0.61191729610132,-0.041,0.014,9.61919,29.52780246734619,0.036,-0.037,0.5,0.0,0.0,-0.0,1.0,0.0,0.0,0.0,0.0,0.0,0.0,0.0,0.0,0.0,29.53971552848816,3.5840001106262207,False,True,False,True,True,False,False
167,1.67,0.046,-0.036,0.536,0.0027675412129610777,-0.0027675412129610777,0.0027675412129610777,0.9999884963035583,0.0055198134,-0.0055503654,0.0055198134,0.003,0.044,0.083,0.064,-0.035,-0.003,29.53971552848816,0.04652966558933258,-0.037593577057123184,0.5368297696113586,,,,,,,,0.6039978637369344,0.5902952620737011,0.6378423743038071,0.6157167925535973,98400.0,95500.0,98400.0,96500.0,29.53971552848816,0.5008621347371633,-0.010391393911650263,0.011078049897001603,0.5008621347371633,0.03,-0.025,9.58919,29.536917448043823,0.036,-0.037,0.5,0.0,0.0,-0.0,1.0,0.0,0.0,0.0,0.0,0.0,0.0,0.0,0.0,0.0,29.549695253372192,3.5840001106262207,False,True,False,True,True,False,False
168,1.68,0.046,-0.036,0.532,0.0027675412129610777,-0.0027675412129610777,0.0027675412129610777,0.9999884963035583,0.0055198134,-0.0055503654,0.0055198134,0.002,0.043,0.059,0.089,-0.014,-0.026,29.549695253372192,0.046515703201293945,-0.03725740686058998,0.5368226766586304,,,,,,,,0.6542153047989624,0.6042572671091783,0.6345006485084306,0.6664530403601129,98000.0,94300.0,98400.0,96800.0,29.549695253372192,0.6629892423895628,0.0057984283207446405,0.007736324101625086,0.6629892423895628,-0.05,-0.056,9.57119,29.54786229133606,0.036,-0.037,0.5,0.0,0.0,-0.0,1.0,0.0,0.0,0.0,0.0,0.0,0.0,0.0,0.0,0.0,29.549695253372192,3.5840001106262207,False,True,False,True,True,False,False
169,1.69,0.046,-0.036,0.532,0.0027675412129610777,-0.0027675412129610777,0.0027675412129610777,0.9999884963035583,0.0055198134,-0.0055503654,0.0055198134,0.002,0.043,0.059,0.089,-0.014,-0.026,29.549695253372192,0.046515703201293945,-0.03725740686058998,0.5368226766586304,,,,,,,,0.6542153047989624,0.6042572671091783,0.6345006485084306,0.6664530403601129,98000.0,94300.0,98400.0,96800.0,29.549695253372192,0.6629892423895628,0.0057984283207446405,0.007736324101625086,0.6629892423895628,-0.05,-0.056,9.57119,29.54786229133606,0.036,-0.037,0.5,0.0,0.0,-0.0,1.0,0.0,0.0,0.0,0.0,0.0,0.0,0.0,0.0,0.0,29.549695253372192,3.5840001106262207,False,True,False,True,True,False,False
170,1.7,0.046,-0.036,0.534,0.004151311703026295,-0.0027675412129610777,0.0027675412129610777,0.9999837279319763,0.0055121277,-0.0055579995,0.008287393,0.001,0.041,0.062,0.15,-0.007,-0.008,29.56493377685547,0.04671897739171982,-0.036848023533821106,0.537266731262207,,,,,,,,0.6375066758220798,0.6388189517051956,0.6415045395590143,0.6106507972838942,100000.0,95200.0,100300.0,97700.0,29.56493377685547,0.8231021591515983,0.004119935912108034,0.006210421911955443,0.8231021591515983,-0.008,-0.089,9.51519,29.566867351531982,0.036,-0.037,0.5,0.0,0.0,-0.0,1.0,0.0,0.0,0.0,0.0,0.0,0.0,0.0,0.0,0.0,29.58231234550476,3.572999954223633,False,True,False,True,True,False,False
