,t,x,y,z,qx,qy,qz,qw,yaw,pitch,roll,vx,vy,vz,wx,wy,wz,ros_timestamp,x_poses,y_poses,z_poses,qx_poses,qy_poses,qz_poses,qw_poses,yaw_poses,pitch_poses,roll_poses,m1_thrust,m2_thrust,m3_thrust,m4_thrust,m1_erpm,m2_erpm,m3_erpm,m4_erpm,ros_timestamp_motors,thrust,torque_roll,torque_pitch,torch_yaw,ax,ay,az,ros_timestamp_image_accel,x_setpoint,y_setpoint,z_setpoint,qx_setpoint,qy_setpoint,qz_setpoint,qw_setpoint,yaw_setpoint,pitch_setpoint,roll_setpoint,vx_setpoint,vy_setpoint,vz_setpoint,wx_setpoint,wy_setpoint,wz_setpoint,ros_timestamp_setpoint,Vbat,can_be_armed,is_armed,auto_arm,can_fly,is_flying,is_tumbled,is_locked
0,0.0,0.036,0.024,0.051,-0.0027675412129610777,0.0013837706064805388,-0.006918853148818016,0.9999712705612183,-0.013845462,0.0027291689,-0.005554121,0.0,0.001,0.025,-0.01,0.06,0.017,5.319508790969849,0.03625717759132385,0.02476140856742859,0.05267876014113426,,,,,,,,0.7709620813305867,0.7491111619745174,0.7421835660334173,0.7751430533302816,82000.0,82000.0,83600.0,81100.0,5.317471504211426,0.9331807431143664,0.031616693369954985,0.0025482566567483025,0.9331807431143664,-0.01,-0.004,9.91319,5.317471504211426,0.035,0.023,0.052,0.0,0.0,-0.006918853148818016,0.9999760389328003,-0.013837816,0.0,0.0,0.0,0.0,0.004,0.0,0.0,0.0,5.326837778091431,3.319999933242798,False,True,False,True,True,False,False
1,0.01,0.035,0.023,0.052,-0.0027675412129610777,0.0013837706064805388,-0.006918853148818016,0.9999712705612183,-0.013845462,0.0027291689,-0.005554121,-0.002,-0.001,0.026,-0.025,0.068,-0.017,5.330226421356201,0.03624114394187927,0.02486683987081051,0.052758436650037766,,,,,,,,0.7833524071107042,0.7414816510261693,0.7585717555504692,0.7913481345845731,90900.0,90900.0,91700.0,90100.0,5.326737642288208,0.12397955291065843,0.037796597238117034,0.0039673456931410694,0.12397955291065843,-0.001,0.031,9.89919,5.326737642288208,0.035,0.023,0.052,0.0,0.0,-0.006918853148818016,0.9999760389328003,-0.013837816,0.0,0.0,0.0,0.0,0.006,0.0,0.0,0.0,5.337183713912964,3.319999933242798,False,True,False,True,True,False,False
2,0.02,0.035,0.023,0.049,-0.0027675412129610777,0.0013837706064805388,-0.006918853148818016,0.9999712705612183,-0.013845462,0.0027291689,-0.005554121,-0.002,0.0,0.025,-0.013,0.064,0.007,5.339492559432983,0.036305807530879974,0.024828078225255013,0.05275034159421921,,,,,,,,0.7753871976806287,0.68374151216907,0.7572289616235599,0.8348973830777447,97700.0,95800.0,98400.0,95800.0,5.336838960647583,0.8791943236438544,0.043884946974898906,0.0011444266422522317,0.8791943236438544,0.0,0.074,10.75219,5.336838960647583,0.035,0.023,0.052,0.0,0.0,-0.006918853148818016,0.9999760389328003,-0.013837816,0.0,0.0,0.0,0.0,0.006,0.0,0.0,0.0,5.337183713912964,3.440999984741211,False,True,False,True,True,False,False
3,0.03,0.036,0.024,0.05,-0.0027675412129610777,0.0013837706064805388,-0.006918853148818016,0.9999712705612183,-0.013845462,0.0027291689,-0.005554121,0.001,0.003,0.032,-0.039,0.088,0.018,5.349593877792358,0.03653862327337265,0.024860993027687073,0.052935708314180374,,,,,,,,0.7738460364690624,0.6950789654383154,0.7426565957122149,0.8178225375753414,103100.0,101700.0,104200.0,103800.0,5.346938610076904,0.16948195620660716,0.045960173952849626,-0.002059967956054017,0.16948195620660716,0.027,0.029,12.10219,5.346938610076904,0.035,0.023,0.052,0.0,0.0,-0.006918853148818016,0.9999760389328003,-0.013837816,0.0,0.0,0.0,0.0,0.011,0.0,0.0,0.0,5.357235431671143,3.440999984741211,False,True,False,True,True,False,False
4,0.04,0.035,0.024,0.051,-0.0027675412129610777,0.0013837706064805388,-0.006918853148818016,0.9999712705612183,-0.013845462,0.0027291689,-0.005554121,-0.005,0.006,0.042,-0.053,0.169,-0.004,5.35969352722168,0.03644564747810364,0.024899456650018692,0.05322539433836937,,,,,,,,0.7630731670099946,0.6883039597161822,0.7152208743419547,0.7891966124971389,106000.0,103100.0,106400.0,107500.0,5.356425762176514,0.5073777370870527,0.05905241474021515,-0.0009155413138017853,0.5073777370870527,0.03,0.004,13.08919,5.356425762176514,0.035,0.023,0.052,0.0,0.0,-0.006918853148818016,0.9999760389328003,-0.013837816,0.0,0.0,0.0,0.0,0.015,0.0,0.0,0.0,5.367076396942139,3.440999984741211,False,True,False,True,True,False,False
5,0.05,0.036,0.024,0.052,-0.004151311703026295,0.0027675412129610777,-0.006918853148818016,0.999963641166687,-0.013860833,0.0054774643,-0.008340839,0.001,0.009,0.068,-0.057,0.194,-0.002,5.369180679321289,0.03652633726596832,0.0249800942838192,0.05390166863799095,,,,,,,,0.7246204318303197,0.7208972304875257,0.7773250934615091,0.7835507743953612,108700.0,104200.0,106000.0,109900.0,5.366771697998047,0.2067597467002365,0.013748378728923476,0.0016327153429465172,0.2067597467002365,0.139,0.124,13.57419,5.366771697998047,0.035,0.023,0.052,0.0,0.0,-0.006918853148818016,0.9999760389328003,-0.013837816,0.0,0.0,0.0,0.0,0.018,0.0,0.0,0.0,5.377152442932129,3.440999984741211,False,True,False,True,True,False,False
6,0.06,0.036,0.024,0.047,-0.005535082425922155,0.004151311703026295,-0.006918853148818016,0.9999521374702454,-0.013883917,0.008225726,-0.011127686,0.007,0.031,0.074,-0.012,0.124,-0.005,5.379526615142822,0.03664492070674896,0.02500431425869465,0.054921943694353104,,,,,,,,0.6951552605477989,0.6941786831464103,0.7069352254520486,0.6991836423285267,108300.0,105300.0,107900.0,111500.0,5.3766584396362305,0.056946669718471045,0.10280003051804379,0.002456702525368124,0.056946669718471045,0.336,0.251,13.456190000000001,5.3766584396362305,0.035,0.023,0.052,0.0,0.0,-0.006918853148818016,0.9999760389328003,-0.013837816,0.0,0.0,0.0,0.0,0.023,0.0,0.0,0.0,5.387035131454468,3.5260000228881836,False,True,False,True,True,False,False
7,0.07,0.036,0.024,0.052,-0.006918853148818016,0.004151311703026295,-0.006918853148818016,0.9999434947967529,-0.013895284,0.008206505,-0.013895284,0.008,0.045,0.129,0.124,-0.0,0.017,5.389413356781006,0.036839377135038376,0.0250607430934906,0.0562911182641983,,,,,,,,0.7340047302967879,0.6228580148012512,0.6014953841458762,0.7046463721675441,108300.0,106000.0,107900.0,111100.0,5.386823415756226,0.23567559319447623,0.12764171816586556,0.005691615167467765,0.23567559319447623,0.282,0.109,13.58019,5.386823415756226,0.035,0.023,0.052,0.0,0.0,-0.006918853148818016,0.9999760389328003,-0.013837816,0.0,0.0,0.0,0.0,0.023,0.0,0.0,0.0,5.387035131454468,3.5260000228881836,False,True,False,True,True,False,False
8,0.08,0.036,0.025,0.055,-0.006918853148818016,0.005535082425922155,-0.006918853148818016,0.9999368190765381,-0.013914711,0.010973945,-0.013914711,0.014,0.065,0.17,0.287,0.118,0.005,5.399578332901001,0.037035997956991196,0.025141263380646706,0.058135464787483215,,,,,,,,0.6893568322270542,0.6067139696345464,0.5872739757381552,0.6534981307698177,110700.0,103800.0,104900.0,109100.0,5.396664381027222,0.9776607919432364,-0.007797360189211872,-0.0007019150072480354,0.9776607919432364,0.127,0.093,13.56419,5.396664381027222,0.035,0.023,0.053,0.0,0.0,-0.006918853148818016,0.9999760389328003,-0.013837816,0.0,0.0,0.0,0.0,0.033,0.0,0.0,0.0,5.407827138900757,3.5260000228881836,False,True,False,True,True,False,False
9,0.09,0.036,0.025,0.057,-0.006918853148818016,0.004151311703026295,-0.006918853148818016,0.9999434947967529,-0.013895284,0.008206505,-0.013895284,0.0,0.073,0.21,0.423,0.193,0.026,5.409419298171997,0.03713711351156235,0.025068752467632294,0.06022503226995468,,,,,,,,0.6303807125963226,0.6395666437781338,0.5789883268482491,0.5726100556954299,110300.0,102400.0,101000.0,108300.0,5.406740427017212,0.7710688944838636,-0.08392462043183031,0.003189135576409552,0.7710688944838636,0.225,-0.06,13.20519,5.406740427017212,0.035,0.023,0.053,0.0,0.0,-0.006918853148818016,0.9999760389328003,-0.013837816,0.0,0.0,0.0,0.0,0.039,0.0,0.0,0.001,5.417312860488892,3.5260000228881836,False,True,False,True,True,False,False
10,0.1,0.036,0.025,0.059,-0.004151311703026295,0.005535082425922155,-0.006918853148818016,0.9999521374702454,-0.013884288,0.011012413,-0.008379425,0.002,0.073,0.249,0.517,0.079,-0.011,5.419495344161987,0.03761289268732071,0.025018516927957535,0.06265823543071747,,,,,,,,0.5767605096513313,0.6340123598077363,0.6673685816739147,0.5870450904097048,107900.0,102000.0,99300.0,105300.0,5.416623115539551,0.5392385748073548,-0.0916609445334554,0.0049897001602197295,0.5392385748073548,0.301,-0.109,12.55719,5.416623115539551,0.035,0.023,0.054,0.0,0.0,-0.006918853148818016,0.9999760389328003,-0.013837816,0.0,0.0,0.0,0.0,0.045,0.0,0.0,0.001,5.4270453453063965,3.6050000190734863,False,True,False,True,True,False,False
11,0.11,0.036,0.026,0.054,-0.0027675412129610777,0.005535082425922155,-0.006918853148818016,0.9999569058418274,-0.013869035,0.011031616,-0.005611808,0.004,0.086,0.263,0.474,-0.152,0.044,5.429378032684326,0.03751002624630928,0.024898149073123932,0.06559452414512634,,,,,,,,0.4749675745784695,0.5551079575799192,0.6572823682001984,0.5524834058136874,103800.0,101400.0,102400.0,102000.0,5.426836729049683,0.5127946898603799,-0.03677424277103838,0.004959182116426337,0.5127946898603799,0.302,-0.123,11.87519,5.426836729049683,0.035,0.023,0.054,0.0,0.0,-0.006918853148818016,0.9999760389328003,-0.013837816,0.0,0.0,0.0,0.0,0.052,0.0,0.0,0.001,5.437336683273315,3.6050000190734863,False,True,False,True,True,False,False
12,0.12,0.036,0.025,0.063,-0.0013837706064805388,0.005535082425922155,-0.006918853148818016,0.9999597668647766,-0.013853757,0.011050796,-0.0028442002,0.0,0.094,0.316,0.32,-0.246,0.036,5.439591646194458,0.03757710009813309,0.024875042960047722,0.06864810734987259,,,,,,,,0.5199511711299306,0.532799267566949,0.5777523460746166,0.5494010833905547,98400.0,99000.0,102700.0,98000.0,5.43741512298584,0.8800488288700694,0.031525139238574806,0.007995727473868924,0.8800488288700694,0.138,-0.089,11.49619,5.43741512298584,0.035,0.023,0.054,0.0,0.0,-0.006918853148818016,0.9999760389328003,-0.013837816,0.0,0.0,0.0,0.0,0.052,0.0,0.0,0.001,5.437336683273315,3.6050000190734863,False,True,False,True,True,False,False
13,0.13,0.036,0.026,0.066,0.0,0.004151311703026295,-0.006918853148818016,0.9999674558639526,-0.013838175,0.008302448,-5.744661e-05,0.001,0.1,0.336,0.321,-0.202,0.029,5.450170040130615,0.037972256541252136,0.024742182344198227,0.07162739336490631,,,,,,,,0.6135347524223698,0.5660486762798504,0.4538033112077516,0.4725413900968948,97100.0,97100.0,98000.0,95800.0,5.446900844573975,0.23649958037689783,0.05514610513466087,0.006713969634546426,0.23649958037689783,0.014,-0.144,10.725190000000001,5.446900844573975,0.035,0.023,0.055,0.0,0.0,-0.006918853148818016,0.9999760389328003,-0.013837816,0.0,0.0,0.0,0.0,0.068,0.0,0.0,0.001,5.457867622375488,3.6050000190734863,False,True,False,True,True,False,False
14,0.14,0.036,0.024,0.071,0.005535082425922155,0.0013837706064805388,-0.006918853148818016,0.9999597668647766,-0.013822327,0.0028440268,0.011050841,-0.008,0.051,0.357,0.51,-0.032,0.037,5.45965576171875,0.03804965317249298,0.02452046610414982,0.07506749033927917,,,,,,,,0.657755397878996,0.5913786526283665,0.5041275654230564,0.541390096894789,97400.0,97100.0,93800.0,92600.0,5.4566333293914795,0.1799191271839475,0.04908827344167239,0.00648508430609598,0.1799191271839475,0.024,-0.226,10.17019,5.4566333293914795,0.035,0.023,0.055,0.0,0.0,-0.006918853148818016,0.9999760389328003,-0.013837816,0.0,0.0,0.0,0.0,0.068,0.0,0.0,0.001,5.457867622375488,3.5999999046325684,False,True,False,True,True,False,False
15,0.15,0.036,0.025,0.065,0.00830262340605259,0.0013837706064805388,-0.005535082425922155,0.9999492764472961,-0.011046896,0.002859316,0.016589915,-0.008,0.05,0.328,0.531,0.079,0.038,5.469388246536255,0.03840523213148117,0.02449405938386917,0.07803697884082794,,,,,,,,0.5748531319142443,0.5128099488822766,0.5176623178454262,0.5537651636530099,97700.0,97100.0,93500.0,90400.0,5.466924667358398,0.12004272526131075,0.06047150377660792,0.007217517357137408,0.12004272526131075,-0.004,-0.34,9.72619,5.466924667358398,0.035,0.023,0.057,0.0,0.0,-0.006918853148818016,0.9999760389328003,-0.013837816,0.0,0.0,0.0,0.0,0.086,0.0,0.0,0.002,5.47662091255188,3.5999999046325684,False,True,False,True,True,False,False
16,0.16,0.037,0.024,0.073,0.009686394594609737,0.0027675412129610777,-0.005535082425922155,0.9999339580535889,-0.011016216,0.0056419773,0.019342387,-0.003,0.057,0.359,0.397,0.113,0.025,5.479679584503174,0.038679566234350204,0.024331435561180115,0.0812428891658783,,,,,,,,0.5272755016403449,0.46849774929427024,0.554863813229572,0.572503242542153,96800.0,93500.0,92000.0,90900.0,5.478332996368408,0.2627603570611124,0.0797283894102388,0.012680247196154727,0.2627603570611124,0.062,-0.342,9.49419,5.478332996368408,0.035,0.023,0.058,0.0,0.0,-0.006918853148818016,0.9999760389328003,-0.013837816,0.0,0.0,0.0,0.0,0.095,0.0,0.0,0.002,5.487096786499023,3.5999999046325684,False,True,False,True,True,False,False
17,0.17,0.037,0.024,0.079,0.01107016485184431,0.0027675412129610777,-0.005535082425922155,0.999919593334198,-0.011008399,0.005657216,0.022110067,-0.004,0.066,0.368,0.162,0.122,0.055,5.491087913513184,0.03915644809603691,0.02422810159623623,0.08447384089231491,,,,,,,,0.5391470206759746,0.4473182269016556,0.5478446631570917,0.5960326543068589,94300.0,92600.0,92000.0,92000.0,5.487455606460571,0.46886396581979095,0.07136644541084916,0.011169604028381781,0.46886396581979095,0.107,-0.349,9.27119,5.487455606460571,0.035,0.023,0.059,0.0,0.0,-0.006918853148818016,0.9999760389328003,-0.013837816,0.0,0.0,0.0,0.0,0.105,0.0,0.0,0.003,5.49986457824707,3.5999999046325684,False,True,False,True,True,False,False
18,0.18,0.038,0.024,0.083,0.012453935109078884,0.004151311703026295,-0.005535082425922155,0.9998984932899475,-0.010966251,0.008439749,0.024862835,0.0,0.063,0.368,0.001,0.159,0.052,5.500210523605347,0.03972566872835159,0.023967893794178963,0.08746404200792313,,,,,,,,0.5542687113756009,0.4375066758220798,0.5536888685435264,0.6180819409475853,94300.0,88800.0,92000.0,92900.0,5.496752738952637,0.34357213702601663,0.027237354085603113,0.014206149385824368,0.34357213702601663,0.113,-0.31,9.084190000000001,5.496752738952637,0.035,0.023,0.06,0.0,0.0,-0.006918853148818016,0.9999760389328003,-0.013837816,0.0,0.0,0.0,0.0,0.116,0.0,0.0,0.003,5.508007049560547,3.5999999046325684,False,True,False,True,True,False,False
19,0.19,0.038,0.025,0.087,0.012453935109078884,0.004151311703026295,-0.005535082425922155,0.9998984932899475,-0.010966251,0.008439749,0.024862835,0.004,0.068,0.362,-0.058,0.159,0.062,5.509507656097412,0.039824459701776505,0.023969514295458794,0.09042078256607056,,,,,,,,0.5994659342336156,0.5095902952620737,0.5560082398718242,0.5866178377965973,92600.0,88200.0,92000.0,95200.0,5.506208896636963,0.2034485389486534,0.05424582284275578,0.013443198290989548,0.2034485389486534,0.128,-0.258,8.97319,5.506208896636963,0.035,0.023,0.061,0.0,0.0,-0.006918853148818016,0.9999760389328003,-0.013837816,0.0,0.0,0.0,0.0,0.127,0.0,0.0,0.003,5.517011642456055,3.5999999046325684,False,True,False,True,True,False,False
20,0.2,0.038,0.023,0.086,0.012453935109078884,0.005535082425922155,-0.005535082425922155,0.9998918175697327,-0.010932004,0.011207068,0.024848018,0.007,0.059,0.352,-0.014,0.095,0.063,5.518963813781738,0.04007326811552048,0.023719660937786102,0.09351268410682678,,,,,,,,0.6542458228427558,0.5336385137712673,0.5181353475242237,0.5940032043945983,94900.0,86200.0,92000.0,94000.0,5.5166847705841064,0.18135347524223697,0.017074845502403294,0.009643701838712139,0.18135347524223697,0.188,-0.249,8.95119,5.5166847705841064,0.035,0.023,0.061,0.0,0.0,-0.006918853148818016,0.9999760389328003,-0.013837816,0.0,0.0,0.0,0.0,0.127,0.0,0.0,0.003,5.517011642456055,3.5999999046325684,False,True,False,True,True,False,False
21,0.21,0.039,0.024,0.09,0.012453935109078884,0.006918853148818016,-0.005535082425922155,0.9998831748962402,-0.010897817,0.013974411,0.024833346,0.012,0.043,0.344,0.109,0.069,0.035,5.529439687728882,0.040789470076560974,0.02357662096619606,0.09631890058517456,,,,,,,,0.6192874036774243,0.5986266880292973,0.5463187609674219,0.5412832837415121,96800.0,89000.0,90400.0,93500.0,5.529452562332153,0.9024338139925231,-0.017059586480506598,0.006973373006790265,0.9024338139925231,0.216,-0.274,9.001190000000001,5.529452562332153,0.035,0.023,0.064,0.0,0.0,-0.006918853148818016,0.9999760389328003,-0.013837816,0.0,0.0,0.0,0.0,0.15,0.0,0.0,0.004,5.536543846130371,3.5999999046325684,False,True,False,True,True,False,False
22,0.22,0.039,0.023,0.095,0.015221476554870605,0.006918853148818016,-0.004151311703026295,0.9998515844345093,-0.008091638,0.013962485,0.030388629,0.019,0.025,0.342,0.13,-0.042,0.005,5.542207479476929,0.04089273512363434,0.023210998624563217,0.09916922450065613,,,,,,,,0.5878538185702297,0.6103150988021668,0.6096742198825056,0.5499809262226292,96200.0,88800.0,91500.0,92600.0,5.53759503364563,0.2711833371480888,-0.024277103837644008,0.004959182116426337,0.2711833371480888,0.208,-0.396,8.98319,5.53759503364563,0.035,0.023,0.064,0.0,0.0,-0.006918853148818016,0.9999760389328003,-0.013837816,0.0,0.0,0.0,0.0,0.15,0.0,0.0,0.004,5.536543846130371,3.552000045776367,False,True,False,True,True,False,False
23,0.23,0.04,0.023,0.099,0.015221476554870605,0.006918853148818016,-0.004151311703026295,0.9998515844345093,-0.008091638,0.013962485,0.030388629,0.02,0.022,0.334,0.05,-0.158,0.021,5.550349950790405,0.04155224561691284,0.02279849536716938,0.10197163373231888,,,,,,,,0.6317998016327153,0.6549019607843137,0.6706797894254978,0.6281071183337148,97400.0,91700.0,91700.0,91700.0,5.546599626541138,0.7949645227740901,0.04269474326695659,0.003509575036240177,0.7949645227740901,0.185,-0.429,9.052190000000001,5.546599626541138,0.035,0.023,0.067,0.0,0.0,-0.006918853148818016,0.9999760389328003,-0.013837816,0.0,0.0,0.0,0.0,0.175,0.0,0.0,0.005,5.557070016860962,3.552000045776367,False,True,False,True,True,False,False
24,0.24,0.04,0.023,0.094,0.015221476554870605,0.006918853148818016,-0.004151311703026295,0.9998515844345093,-0.008091638,0.013962485,0.030388629,0.019,0.017,0.295,-0.068,-0.232,-0.002,5.559354543685913,0.0417674258351326,0.02271115593612194,0.10445605218410492,,,,,,,,0.6290226596475166,0.6079346913862821,0.654383154039826,0.6621652552071412,96500.0,94300.0,96200.0,93500.0,5.556661605834961,0.7949645227740901,0.04269474326695659,0.003509575036240177,0.7949645227740901,0.114,-0.433,9.19919,5.556661605834961,0.035,0.023,0.069,0.0,0.0,-0.006918853148818016,0.9999760389328003,-0.013837816,0.0,0.0,0.0,0.0,0.188,0.0,0.0,0.005,5.566187381744385,3.552000045776367,False,True,False,True,True,False,False
25,0.25,0.04,0.022,0.101,0.015221476554870605,0.005535082425922155,-0.004151311703026295,0.9998602271080017,-0.008133558,0.01119523,0.03039933,0.021,0.011,0.306,-0.208,-0.23,-0.009,5.569416522979736,0.04207431524991989,0.022341439500451088,0.10711939632892609,,,,,,,,0.6775768673228046,0.5785458152132449,0.6137636377508202,0.6966811627374685,97400.0,96800.0,98000.0,96800.0,5.566131830215454,0.07833981841763943,0.0401007095445182,0.007339589532310979,0.07833981841763943,0.078,-0.317,9.60119,5.566131830215454,0.035,0.023,0.071,0.0,0.0,-0.006918853148818016,0.9999760389328003,-0.013837816,0.0,0.0,0.0,0.0,0.201,0.0,0.0,0.005,5.57672119140625,3.552000045776367,False,True,False,True,True,False,False
26,0.26,0.041,0.022,0.105,0.013837706297636032,0.004151311703026295,-0.005535082425922155,0.999880313873291,-0.010954561,0.008454916,0.027630648,0.031,0.017,0.308,-0.218,-0.123,0.0,5.5788867473602295,0.0425327867269516,0.022023877128958702,0.1097966656088829,,,,,,,,0.6704814221408407,0.6306248569466697,0.6513771267261769,0.6538185702296483,100000.0,95500.0,98700.0,99000.0,5.575589895248413,0.8221713588158999,0.023895628290226595,0.009857328145265888,0.8221713588158999,0.047,-0.269,9.934190000000001,5.575589895248413,0.035,0.023,0.073,0.0,0.0,-0.005535082425922155,0.9999846816062927,-0.011070222,0.0,0.0,0.0,0.0,0.215,0.0,0.0,0.006,5.590025186538696,3.5409998893737793,False,True,False,True,True,False,False
27,0.27,0.041,0.022,0.108,0.012453935109078884,0.004151311703026295,-0.005535082425922155,0.9998984932899475,-0.010966251,0.008439749,0.024862835,0.033,0.014,0.307,-0.187,-0.123,0.03,5.5883448123931885,0.04300745204091072,0.021622713655233383,0.11246853321790695,,,,,,,,0.6855268177309835,0.6569314106965743,0.6517433432516976,0.642374303807126,101000.0,97400.0,100000.0,99700.0,5.586658000946045,0.44768444342717634,-0.0345464255741207,0.007431143663691157,0.44768444342717634,0.124,-0.291,10.136190000000001,5.586658000946045,0.035,0.023,0.075,0.0,0.0,-0.005535082425922155,0.9999846816062927,-0.011070222,0.0,0.0,0.0,0.0,0.229,0.0,0.0,0.006,5.59712290763855,3.5409998893737793,False,True,False,True,True,False,False
28,0.28,0.042,0.021,0.111,0.012453935109078884,0.004151311703026295,-0.004151311703026295,0.9999052286148071,-0.008198818,0.008405335,0.024874488,0.033,0.009,0.308,-0.111,-0.169,0.03,5.59941291809082,0.04344339668750763,0.021212276071310043,0.11513258516788483,,,,,,,,0.6672922865644312,0.6770885786221104,0.6949111161974517,0.6610666056305791,103400.0,98700.0,100700.0,98400.0,5.595775365829468,0.11734187838559548,-0.0009308003356984818,0.00494392309452964,0.11734187838559548,0.068,-0.316,10.347190000000001,5.595775365829468,0.035,0.023,0.077,0.0,0.0,-0.005535082425922155,0.9999846816062927,-0.011070222,0.0,0.0,0.0,0.0,0.243,0.0,0.0,0.007,5.6088597774505615,3.5409998893737793,False,True,False,True,True,False,False
29,0.29,0.042,0.021,0.112,0.01107016485184431,0.0027675412129610777,-0.004151311703026295,0.9999262690544128,-0.008240961,0.0056266156,0.022117874,0.03,0.006,0.311,-0.136,-0.227,0.01,5.608530282974243,0.043903898447752,0.020772220566868782,0.117791548371315,,,,,,,,0.6717784390020599,0.6913405050736248,0.6937514305333028,0.6416571297779813,103400.0,102000.0,102000.0,99000.0,5.606309175491333,0.6645914396887159,0.05284199282825971,0.012344548714427405,0.6622110322728313,0.028,-0.317,10.62519,5.606309175491333,0.035,0.023,0.08,0.0,0.0,-0.005535082425922155,0.9999846816062927,-0.011070222,0.0,0.0,0.0,0.0,0.257,0.0,0.0,0.007,5.617383003234863,3.5409998893737793,False,True,False,True,True,False,False
30,0.3,0.043,0.02,0.116,0.01107016485184431,0.0013837706064805388,-0.004151311703026295,0.9999291300773621,-0.008271527,0.0028592607,0.022129169,0.028,-0.002,0.32,-0.14,-0.25,0.021,5.619064092636108,0.04422348737716675,0.020226411521434784,0.12062256783246994,,,,,,,,0.7160906385900664,0.6397650110627908,0.6636606393530174,0.6939650568398565,104200.0,103100.0,104500.0,101000.0,5.619613170623779,0.518272678721294,0.045136186770428015,0.010482948043030441,0.518272678721294,0.002,-0.265,10.85119,5.619613170623779,0.035,0.023,0.082,0.0,0.0,-0.005535082425922155,0.9999846816062927,-0.011070222,0.0,0.0,0.0,0.0,0.272,0.0,0.0,0.007,5.62723445892334,3.5309998989105225,False,True,False,True,True,False,False
31,0.31,0.043,0.02,0.119,0.01107016485184431,-0.0,-0.004151311703026295,0.9999300837516785,-0.008302138,9.191141e-05,0.02214059,0.025,-0.003,0.33,-0.179,-0.132,0.033,5.632368087768555,0.04460751265287399,0.01977131888270378,0.12357897311449051,,,,,,,,0.6764629587243458,0.6127107652399482,0.7002975509269855,0.7217517357137407,105600.0,102000.0,104900.0,102700.0,5.626710891723633,0.0883039597161822,0.014557106889448387,0.006683451590753032,0.0883039597161822,-0.058,-0.308,10.98619,5.626710891723633,0.035,0.023,0.085,0.0,0.0,-0.005535082425922155,0.9999846816062927,-0.011070222,0.0,0.0,0.0,0.0,0.286,0.0,0.0,0.008,5.641627073287964,3.5309998989105225,False,True,False,True,True,False,False
32,0.32,0.043,0.02,0.123,0.009686394594609737,-0.0013837706064805388,-0.004151311703026295,0.9999434947967529,-0.008329088,-0.0026869655,0.019384468,0.024,0.001,0.34,-0.296,-0.048,0.032,5.639465808868408,0.04533592611551285,0.019318897277116776,0.12649103999137878,,,,,,,,0.6974746318760967,0.6695506218051422,0.7228351262684062,0.7240253299763485,104500.0,101000.0,105300.0,105300.0,5.6384477615356445,0.03605706874189364,0.02119478141451133,0.008499275196459906,0.03605706874189364,-0.037,-0.18,11.05819,5.6384477615356445,0.035,0.023,0.088,0.0,0.0,-0.005535082425922155,0.9999846816062927,-0.011070222,0.0,0.0,0.0,0.0,0.301,0.0,0.0,0.008,5.646833419799805,3.5309998989105225,False,True,False,True,True,False,False
33,0.33,0.044,0.019,0.122,0.006918853148818016,-0.0013837706064805388,-0.004151311703026295,0.9999665021896362,-0.00832162,-0.0027100071,0.013849225,0.02,0.017,0.334,-0.283,-0.004,0.015,5.65120267868042,0.045672181993722916,0.018888048827648163,0.1296706348657608,,,,,,,,0.7298084992751964,0.7072861829556726,0.6745098039215687,0.6648050659952697,106400.0,101400.0,106000.0,106800.0,5.646970987319946,0.5813687342641337,0.013611047531853208,0.00959792477302205,0.5813687342641337,-0.033,-0.043,11.16319,5.646970987319946,0.035,0.023,0.091,0.0,0.0,-0.005535082425922155,0.9999846816062927,-0.011070222,0.0,0.0,0.0,0.0,0.315,0.0,0.0,0.009,5.657433748245239,3.5309998989105225,False,True,False,True,True,False,False
34,0.34,0.044,0.018,0.127,0.005535082425922155,-0.0013837706064805388,-0.004151311703026295,0.9999750852584839,-0.008317862,-0.00272152,0.011081645,0.022,0.011,0.353,-0.107,-0.059,0.022,5.659725904464722,0.04608576372265816,0.01826416701078415,0.13296395540237427,,,,,,,,0.7339436942092011,0.7202716105897612,0.6741283283741513,0.6463569085221638,107900.0,105300.0,106000.0,104500.0,5.656822443008423,0.16688792248416875,-0.0021972991531242847,0.016006713969634545,0.16688792248416875,-0.018,-0.078,11.36719,5.656822443008423,0.035,0.023,0.094,0.0,0.0,-0.005535082425922155,0.9999846816062927,-0.011070222,0.0,0.0,0.0,0.0,0.33,0.0,0.0,0.009,5.668308258056641,3.5309998989105225,False,True,False,True,True,False,False
35,0.35000000000000003,0.045,0.018,0.131,0.005535082425922155,-0.0013837706064805388,-0.004151311703026295,0.9999750852584839,-0.008317862,-0.00272152,0.011081645,0.022,0.001,0.369,0.039,-0.098,0.043,5.669577360153198,0.046613775193691254,0.017607606947422028,0.1363416463136673,,,,,,,,0.6980544747081712,0.6645761806668192,0.707820248722057,0.6740367742427711,107900.0,106400.0,105600.0,104500.0,5.671215057373047,0.17259479667353322,0.03163195239185168,0.013015945677882048,0.17259479667353322,-0.056,-0.172,11.31719,5.671215057373047,0.035,0.023,0.098,0.0,0.0,-0.005535082425922155,0.9999846816062927,-0.011070222,0.0,0.0,0.0,0.0,0.345,0.0,0.0,0.01,5.679780006408691,3.5309998989105225,False,True,False,True,True,False,False
36,0.36,0.045,0.017,0.135,0.005535082425922155,-0.0027675412129610777,-0.004151311703026295,0.9999722242355347,-0.008333251,-0.0054890006,0.01109323,0.021,-0.001,0.386,-0.023,-0.115,0.067,5.683969974517822,0.047021329402923584,0.016961656510829926,0.14013154804706573,,,,,,,,0.6813153276874953,0.6214084077210651,0.7118333714808881,0.7224841687647822,107900.0,106000.0,106400.0,104900.0,5.676421403884888,0.5922178988326848,0.045914396887159536,0.01283283741512169,0.5922178988326848,-0.091,-0.238,11.25219,5.676421403884888,0.035,0.023,0.105,0.0,0.0,-0.005535082425922155,0.9999846816062927,-0.011070222,0.0,0.0,0.0,0.0,0.374,0.0,0.0,0.01,5.696681022644043,3.5309998989105225,False,True,False,True,True,False,False
37,0.37,0.046,0.016,0.139,0.005535082425922155,-0.0027675412129610777,-0.004151311703026295,0.9999722242355347,-0.008333251,-0.0054890006,0.01109323,0.025,-0.007,0.402,-0.226,-0.092,0.042,5.689176321029663,0.04742206633090973,0.016354193910956383,0.14389197528362274,,,,,,,,0.6813153276874953,0.6214084077210651,0.7118333714808881,0.7224841687647822,107900.0,106000.0,106400.0,104900.0,5.676421403884888,0.5922178988326848,0.045914396887159536,0.01283283741512169,0.5922178988326848,-0.091,-0.238,11.25219,5.676421403884888,0.035,0.023,0.105,0.0,0.0,-0.005535082425922155,0.9999846816062927,-0.011070222,0.0,0.0,0.0,0.0,0.374,0.0,0.0,0.01,5.696681022644043,3.5309998989105225,False,True,False,True,True,False,False
38,0.38,0.046,0.016,0.136,0.004151311703026295,-0.0027675412129610777,-0.004151311703026295,0.9999789595603943,-0.008325648,-0.005500527,0.008325648,0.024,-0.008,0.401,-0.299,-0.043,0.043,5.699776649475098,0.04805050045251846,0.015889033675193787,0.14736653864383698,,,,,,,,0.7501029983978027,0.6725871671625849,0.6919356069275959,0.7227588311589227,108300.0,104500.0,107900.0,106800.0,5.697896242141724,0.28046082246128023,0.02145418478675517,0.012314030670634012,0.28046082246128023,-0.025,-0.086,11.40019,5.697896242141724,0.035,0.023,0.109,0.0,0.0,-0.005535082425922155,0.9999846816062927,-0.011070222,0.0,0.0,0.0,0.0,0.389,0.0,0.0,0.011,5.706801652908325,3.5360000133514404,False,True,False,True,True,False,False
39,0.39,0.047,0.016,0.14,0.004151311703026295,-0.0027675412129610777,-0.004151311703026295,0.9999789595603943,-0.008325648,-0.005500527,0.008325648,0.033,-0.018,0.416,-0.224,-0.038,0.033,5.710651159286499,0.048689037561416626,0.015303502790629864,0.15134736895561218,,,,,,,,0.7204547188525215,0.6621042191195544,0.665491721980621,0.6750743877317464,109100.0,104900.0,108300.0,107100.0,5.709367990493774,0.8300297550926986,0.022186617837796598,0.01078812848096437,0.8300297550926986,-0.025,-0.035,11.53419,5.709367990493774,0.035,0.023,0.112,0.0,0.0,-0.005535082425922155,0.9999846816062927,-0.011070222,0.0,0.0,0.0,0.0,0.403,0.0,0.0,0.011,5.716778039932251,3.5360000133514404,False,True,False,True,True,False,False
40,0.4,0.048,0.015,0.148,0.0027675412129610777,-0.0027675412129610777,-0.004151311703026295,0.9999837279319763,-0.008318029,-0.0055120424,0.0055580838,0.033,-0.02,0.452,-0.168,-0.068,0.028,5.72212290763855,0.048966020345687866,0.014662916772067547,0.15559634566307068,,,,,,,,0.686808575570306,0.6484779125658046,0.6728007934691387,0.6610818646524758,109100.0,104200.0,106400.0,106400.0,5.716098785400391,0.7107652399481194,-0.006713969634546426,0.01271076523994812,0.7107652399481194,-0.04,-0.059,11.47319,5.716098785400391,0.035,0.023,0.117,0.0,0.0,-0.005535082425922155,0.9999846816062927,-0.011070222,0.0,0.0,0.0,0.0,0.418,0.0,0.0,0.012,5.726815462112427,3.5360000133514404,False,True,False,True,True,False,False
41,0.41000000000000003,0.048,0.014,0.154,0.0027675412129610777,-0.0027675412129610777,-0.0027675412129610777,0.9999884963035583,-0.00555045,-0.005519728,0.00555045,0.039,-0.031,0.477,-0.181,-0.128,0.045,5.728853702545166,0.049353841692209244,0.013979526236653328,0.16010268032550812,,,,,,,,0.686808575570306,0.6484779125658046,0.6728007934691387,0.6610818646524758,109100.0,104200.0,106400.0,106400.0,5.716098785400391,0.8843518730449378,0.017624170290684367,0.015243762874799725,0.8843518730449378,-0.04,-0.059,11.47319,5.716098785400391,0.035,0.023,0.121,0.0,0.0,-0.005535082425922155,0.9999846816062927,-0.011070222,0.0,0.0,0.0,0.0,0.432,0.0,0.0,0.012,5.736760139465332,3.5360000133514404,False,True,False,True,True,False,False
42,0.42,0.048,0.014,0.151,0.0013837706064805388,-0.0027675412129610777,-0.0027675412129610777,0.9999913573265076,-0.005542807,-0.005527403,0.002782882,0.038,-0.031,0.46,-0.274,-0.178,0.029,5.739023923873901,0.0497920997440815,0.013455973006784916,0.16448144614696503,,,,,,,,0.6858777752346075,0.6434576943617915,0.7064469367513543,0.6811169604028382,108700.0,104500.0,107900.0,103800.0,5.736389636993408,0.4715800717174029,0.012375066758220797,0.016433966582742047,0.4715800717174029,-0.125,-0.06,11.19419,5.736389636993408,0.035,0.023,0.125,0.0,0.0,-0.005535082425922155,0.9999846816062927,-0.011070222,0.0,0.0,0.0,0.0,0.446,0.0,0.0,0.013,5.746948480606079,3.5409998893737793,False,True,False,True,True,False,False
43,0.43,0.049,0.013,0.162,0.0013837706064805388,-0.004151311703026295,-0.0027675412129610777,0.9999865889549255,-0.0055467165,-0.008294947,0.0027905817,0.038,-0.039,0.498,-0.324,-0.195,0.064,5.749144554138184,0.05020523816347122,0.012907539494335651,0.1691858321428299,,,,,,,,0.6836957351033799,0.6422522316319524,0.6811932555123217,0.6564736400396735,107900.0,104200.0,107100.0,104200.0,5.746366024017334,0.8747081712062257,0.025558861676966506,0.012634470130464637,0.8747081712062257,-0.197,0.049,11.17319,5.746366024017334,0.035,0.023,0.129,0.0,0.0,-0.005535082425922155,0.9999846816062927,-0.011070222,0.0,0.0,0.0,0.0,0.459,0.0,0.0,0.013,5.760061979293823,3.5409998893737793,False,True,False,True,True,False,False
44,0.44,0.049,0.012,0.168,-0.0,-0.005535082425922155,-0.0027675412129610777,0.9999808669090271,-0.005535344,-0.01107018,3.0639014e-05,0.039,-0.041,0.515,-0.304,-0.183,0.05,5.759120941162109,0.050439439713954926,0.012211300432682037,0.17422738671302795,,,,,,,,0.6788586251621271,0.6402532997634851,0.6599679560540169,0.6442511635004197,106800.0,102700.0,106800.0,104900.0,5.75640344619751,0.9510795757991912,0.02528419928282597,0.011841000991836423,0.9510795757991912,-0.167,0.047,11.03119,5.75640344619751,0.035,0.023,0.134,0.0,0.0,-0.005535082425922155,0.9999846816062927,-0.011070222,0.0,0.0,0.0,0.0,0.473,0.0,0.0,0.013,5.766761064529419,3.5409998893737793,False,True,False,True,True,False,False
45,0.45,0.05,0.011,0.174,-0.0027675412129610777,-0.005535082425922155,-0.0027675412129610777,0.9999769926071167,-0.005504684,-0.011085456,-0.005504684,0.037,-0.04,0.53,-0.289,-0.15,0.034,5.769158363342285,0.05107240006327629,0.01158914901316166,0.17917267978191376,,,,,,,,0.6796826123445487,0.6278629739833677,0.6485236896314946,0.6573128862439918,106000.0,102000.0,106400.0,104500.0,5.766348123550415,0.3810635538261997,0.015884641794460974,0.009903105210955977,0.3810635538261997,-0.143,0.065,10.85619,5.766348123550415,0.035,0.023,0.139,0.0,0.0,-0.005535082425922155,0.9999846816062927,-0.011070222,0.0,0.0,0.0,0.0,0.486,0.0,0.0,0.014,5.7764058113098145,3.5409998893737793,False,True,False,True,True,False,False
46,0.46,0.05,0.011,0.179,-0.004151311703026295,-0.006918853148818016,-0.0027675412129610777,0.999963641166687,-0.0054779905,-0.013860625,-0.008264914,0.036,-0.04,0.542,-0.289,-0.109,0.017,5.77910304069519,0.051355451345443726,0.01117795892059803,0.1839047074317932,,,,,,,,0.6710612649729152,0.6592507820248722,0.6817730983443961,0.6506752117189288,106400.0,102000.0,106000.0,102700.0,5.776536464691162,0.1083085374227512,-0.019058518348973832,0.015579461356527047,0.1083085374227512,-0.146,0.127,10.69119,5.776536464691162,0.035,0.023,0.144,0.0,0.0,-0.005535082425922155,0.9999846816062927,-0.011070222,0.0,0.0,0.0,0.0,0.499,0.0,0.0,0.014,5.786652565002441,3.546999931335449,False,True,False,True,True,False,False
47,0.47000000000000003,0.051,0.01,0.18,-0.005535082425922155,-0.006918853148818016,-0.0027675412129610777,0.9999569058418274,-0.005458803,-0.013868191,-0.011032676,0.035,-0.041,0.548,-0.249,-0.137,0.016,5.7892913818359375,0.05172612890601158,0.010420622304081917,0.18924139440059662,,,,,,,,0.6637369344625009,0.6496375982299535,0.6970931563286793,0.6474097810330358,106400.0,103100.0,106000.0,101000.0,5.789649963378906,0.6710612649729152,-0.013748378728923476,0.012359807736324101,0.6710612649729152,-0.156,0.134,10.60119,5.789649963378906,0.035,0.023,0.149,0.0,0.0,-0.005535082425922155,0.9999846816062927,-0.011070222,0.0,0.0,0.0,0.0,0.511,0.0,0.0,0.014,5.796451091766357,3.546999931335449,False,True,False,True,True,False,False
48,0.48,0.051,0.01,0.186,-0.005535082425922155,-0.00830262340605259,-0.0027675412129610777,0.9999463558197021,-0.005443654,-0.01663576,-0.011025364,0.035,-0.042,0.557,-0.222,-0.199,0.042,5.802404880523682,0.051929689943790436,0.009865439496934414,0.1944185048341751,,,,,,,,0.6518196383611811,0.6194705119401847,0.681025406271458,0.6580758373388266,106400.0,103100.0,106400.0,101000.0,5.796349048614502,0.8110933089188983,0.04443427176317998,0.016830701152056152,0.8110933089188983,-0.168,0.11,10.57919,5.796349048614502,0.035,0.023,0.154,0.0,0.0,-0.005535082425922155,0.9999846816062927,-0.011070222,0.0,0.0,0.0,0.0,0.524,0.0,0.0,0.015,5.8078227043151855,3.546999931335449,False,True,False,True,True,False,False
49,0.49,0.051,0.009,0.193,-0.006918853148818016,-0.00830262340605259,-0.0027675412129610777,0.9999377727508545,-0.0054206257,-0.016643278,-0.013793236,0.031,-0.041,0.574,-0.241,-0.198,0.033,5.809103965759277,0.05217057466506958,0.009365146979689598,0.19970200955867767,,,,,,,,0.7119249256122683,0.6615396353093767,0.7219958800640879,0.722392614633402,104900.0,100700.0,106400.0,103400.0,5.816240549087524,0.34602883955138475,0.020981155107957578,0.01228351262684062,0.34602883955138475,-0.272,0.24,10.51919,5.816240549087524,0.035,0.023,0.159,0.0,0.0,-0.005535082425922155,0.9999846816062927,-0.011070222,0.0,0.0,0.0,0.0,0.535,0.0,0.0,0.015,5.82405686378479,3.546999931335449,False,True,False,True,True,False,False
50,0.5,0.051,0.009,0.199,-0.00830262340605259,-0.009686394594609737,-0.0013837706064805388,0.9999176859855652,-0.0026069619,-0.019395389,-0.01658095,0.03,-0.038,0.58,-0.281,-0.098,0.043,5.818748712539673,0.052411481738090515,0.008902727626264095,0.2050086259841919,,,,,,,,0.7119249256122683,0.6615396353093767,0.7219958800640879,0.722392614633402,104900.0,100700.0,106400.0,103400.0,5.816240549087524,0.9127031357289997,0.03143358510719463,0.011581597619592585,0.9127031357289997,-0.272,0.24,10.51919,5.816240549087524,0.035,0.023,0.164,0.0,0.0,-0.005535082425922155,0.9999846816062927,-0.011070222,0.0,0.0,0.0,0.0,0.546,0.0,0.0,0.015,5.829951524734497,3.5260000228881836,False,True,False,True,True,False,False
51,0.51,0.052,0.008,0.2,-0.009686394594609737,-0.009686394594609737,-0.0013837706064805388,0.9999052286148071,-0.002580115,-0.019398976,-0.019348994,0.033,-0.032,0.567,-0.275,-0.057,0.026,5.8289954662323,0.05274223908782005,0.008428040891885757,0.2104165405035019,,,,,,,,0.7109941252765698,0.6537422751201648,0.6671702143892576,0.6854200045777066,105600.0,101700.0,106800.0,102400.0,5.82603907585144,0.9724879835202563,0.012481879911497674,0.013321126115815976,0.9724879835202563,-0.27,0.277,10.51019,5.82603907585144,0.035,0.023,0.17,0.0,0.0,-0.004151311703026295,0.9999913573265076,-0.008302647,0.0,0.0,0.0,0.0,0.557,0.0,0.0,0.016,5.837031841278076,3.5260000228881836,False,True,False,True,True,False,False
52,0.52,0.052,0.008,0.208,-0.01107016485184431,-0.009686394594609737,-0.0013837706064805388,0.9998908638954163,-0.0025532625,-0.01940253,-0.022117073,0.03,-0.029,0.581,-0.185,-0.04,0.007,5.838793992996216,0.05306824669241905,0.007856914773583412,0.21589747071266174,,,,,,,,0.6810864423590448,0.6680247196154726,0.6842298008697643,0.6380865186541542,106400.0,100300.0,106400.0,104200.0,5.8374106884002686,0.5280842298008698,-0.016495002670328832,0.0178988326848249,0.5280842298008698,-0.264,0.271,10.62119,5.8374106884002686,0.035,0.023,0.175,0.0,0.0,-0.004151311703026295,0.9999913573265076,-0.008302647,0.0,0.0,0.0,0.0,0.567,0.0,0.0,0.016,5.8469483852386475,3.5260000228881836,False,True,False,True,True,False,False
53,0.53,0.052,0.007,0.214,-0.012453935109078884,-0.01107016485184431,-0.0013837706064805388,0.9998602271080017,-0.0024920353,-0.022173518,-0.024882436,0.029,-0.029,0.59,-0.095,-0.086,0.036,5.850165605545044,0.053336720913648605,0.00742274709045887,0.22143308818340302,,,,,,,,0.671122301060502,0.6543678950179294,0.6850385290302892,0.6383154039826047,106000.0,103100.0,106400.0,102000.0,5.853644847869873,0.8150759136339361,0.03953612573434043,0.014129854276340887,0.8150759136339361,-0.252,0.265,10.67219,5.853644847869873,0.035,0.023,0.181,0.0,0.0,-0.004151311703026295,0.9999913573265076,-0.008302647,0.0,0.0,0.0,0.0,0.577,0.0,0.0,0.016,5.859466552734375,3.5260000228881836,False,True,False,True,True,False,False
54,0.54,0.053,0.007,0.22,-0.012453935109078884,-0.01107016485184431,-0.0013837706064805388,0.9998602271080017,-0.0024920353,-0.022173518,-0.024882436,0.027,-0.027,0.599,-0.061,-0.134,0.04,5.866399765014648,0.05349722132086754,0.006991999223828316,0.22706381976604462,,,,,,,,0.6726939803158618,0.6210879682612345,0.6735484855420768,0.6703440909437705,106000.0,103100.0,106400.0,101700.0,5.85953950881958,0.04597543297474632,0.04339665827420462,0.01458762493324178,0.04597543297474632,-0.284,0.235,10.61819,5.85953950881958,0.035,0.023,0.193,0.0,0.0,-0.004151311703026295,0.9999913573265076,-0.008302647,0.0,0.0,0.0,0.0,0.595,0.0,0.0,0.017,5.876733779907227,3.5409998893737793,False,True,False,True,True,False,False
55,0.55,0.053,0.006,0.226,-0.012453935109078884,-0.01107016485184431,-0.0013837706064805388,0.9998602271080017,-0.0024920353,-0.022173518,-0.024882436,0.026,-0.027,0.607,-0.108,-0.062,0.02,5.8722944259643555,0.053735122084617615,0.006630256772041321,0.23281849920749664,,,,,,,,0.6951400015259022,0.627847714961471,0.6527199206530861,0.6558022430762188,106800.0,102400.0,107100.0,104200.0,5.8765363693237305,0.04597543297474632,0.04339665827420462,0.01458762493324178,0.04597543297474632,-0.244,0.303,10.62819,5.8765363693237305,0.035,0.023,0.193,0.0,0.0,-0.004151311703026295,0.9999913573265076,-0.008302647,0.0,0.0,0.0,0.0,0.595,0.0,0.0,0.017,5.876733779907227,3.5409998893737793,False,True,False,True,True,False,False
56,0.56,0.053,0.006,0.226,-0.012453935109078884,-0.01107016485184431,-0.0013837706064805388,0.9998602271080017,-0.0024920353,-0.022173518,-0.024882436,0.026,-0.027,0.607,-0.108,-0.062,0.02,5.8722944259643555,0.053735122084617615,0.006630256772041321,0.23281849920749664,,,,,,,,0.6951400015259022,0.627847714961471,0.6527199206530861,0.6558022430762188,106800.0,102400.0,107100.0,104200.0,5.8765363693237305,0.04597543297474632,0.04339665827420462,0.01458762493324178,0.04597543297474632,-0.244,0.303,10.62819,5.8765363693237305,0.035,0.023,0.193,0.0,0.0,-0.004151311703026295,0.9999913573265076,-0.008302647,0.0,0.0,0.0,0.0,0.595,0.0,0.0,0.017,5.876733779907227,3.5409998893737793,False,True,False,True,True,False,False
57,0.5700000000000001,0.053,0.005,0.236,-0.013837706297636032,-0.012453935109078884,-0.0013837706064805388,0.9998257160186768,-0.0024231472,-0.024944412,-0.027648244,0.019,-0.024,0.624,-0.144,-0.005,0.04,5.889291286468506,0.0540991835296154,0.006029725074768066,0.24428138136863708,,,,,,,,0.6591744869153887,0.6350652323186083,0.6725719081406882,0.6444953078507668,106400.0,101000.0,106800.0,104200.0,5.889054536819458,0.7962920576791027,0.015838864728770885,0.015716792553597314,0.7962920576791027,-0.234,0.318,10.687190000000001,5.889054536819458,0.035,0.023,0.204,0.0,0.0,-0.004151311703026295,0.9999913573265076,-0.008302647,0.0,0.0,0.0,0.0,0.611,0.0,0.0,0.017,5.897348880767822,3.5409998893737793,False,True,False,True,True,False,False
58,0.58,0.053,0.005,0.242,-0.015221476554870605,-0.012453935109078884,-0.0013837706064805388,0.9998056292533875,-0.0023886142,-0.024947742,-0.030416723,0.017,-0.02,0.632,-0.101,-0.027,0.022,5.901809453964233,0.05411715805530548,0.0056357732973992825,0.25037938356399536,,,,,,,,0.6603799496452277,0.6084382391088731,0.6619058518348974,0.6442053864347296,106000.0,101700.0,106800.0,102400.0,5.89636492729187,0.00123598077363241,-0.005127031357289998,0.013870450904097047,0.00123598077363241,-0.271,0.298,10.552190000000001,5.89636492729187,0.035,0.023,0.211,0.0,0.0,-0.004151311703026295,0.9999913573265076,-0.008302647,0.0,0.0,0.0,0.0,0.618,0.0,0.0,0.018,5.90712571144104,3.546999931335449,False,True,False,True,True,False,False
59,0.59,0.053,0.005,0.249,-0.015221476554870605,-0.012453935109078884,-0.0013837706064805388,0.9998056292533875,-0.0023886142,-0.024947742,-0.030416723,0.018,-0.019,0.644,-0.082,-0.019,0.04,5.9091198444366455,0.054227087646722794,0.005442971363663673,0.2563554346561432,,,,,,,,0.6616922255283436,0.6363317311360341,0.696604867627985,0.6652018005645838,106000.0,102000.0,105600.0,102400.0,5.90632176399231,0.23978027008468758,0.011993591210803388,0.012344548714427405,0.23978027008468758,-0.295,0.314,10.421190000000001,5.90632176399231,0.035,0.023,0.217,0.0,0.0,-0.004151311703026295,0.9999913573265076,-0.008302647,0.0,0.0,0.0,0.0,0.624,0.0,0.0,0.018,5.917876958847046,3.546999931335449,False,True,False,True,True,False,False
60,0.6,0.054,0.005,0.252,-0.015221476554870605,-0.012453935109078884,-0.0013837706064805388,0.9998056292533875,-0.0023886142,-0.024947742,-0.030416723,0.015,-0.016,0.631,-0.069,-0.032,0.024,5.919076681137085,0.05437228083610535,0.005277253687381744,0.26238560676574707,,,,,,,,0.6689250019073777,0.6312352178225376,0.677958342870222,0.6662088960097657,106400.0,102000.0,106400.0,102000.0,5.916469097137451,0.8560616464484626,0.0014496070801861601,0.01428244449530785,0.8560616464484626,-0.294,0.285,10.398190000000001,5.916469097137451,0.035,0.023,0.223,0.0,0.0,-0.004151311703026295,0.9999913573265076,-0.008302647,0.0,0.0,0.0,0.0,0.63,0.0,0.0,0.018,5.92678427696228,3.546999931335449,False,True,False,True,True,False,False
61,0.61,0.054,0.004,0.26,-0.01660524681210518,-0.012453935109078884,-0.0,0.9997845888137817,0.00041372966,-0.02490508,-0.03321975,0.016,-0.015,0.645,-0.076,-0.021,0.012,5.929224014282227,0.05430791154503822,0.005081946961581707,0.2686278223991394,,,,,,,,0.6652780956740673,0.6013733119707027,0.6518806744487678,0.6623178454261082,105300.0,101700.0,106800.0,101400.0,5.926936864852905,0.8560616464484626,0.0014496070801861601,0.01428244449530785,0.8560616464484626,-0.275,0.293,10.427190000000001,5.926936864852905,0.035,0.023,0.229,0.0,0.0,-0.004151311703026295,0.9999913573265076,-0.008302647,0.0,0.0,0.0,0.0,0.635,0.0,0.0,0.018,5.936981916427612,3.546999931335449,False,True,False,True,True,False,False
62,0.62,0.054,0.004,0.266,-0.01660524681210518,-0.012453935109078884,-0.0,0.9997845888137817,0.00041372966,-0.02490508,-0.03321975,0.014,-0.012,0.651,-0.073,-0.006,0.02,5.939691781997681,0.05433719977736473,0.004931940231472254,0.2747419476509094,,,,,,,,0.6511635004196231,0.6074921797512779,0.646646829938201,0.63935301747158,104500.0,101000.0,105600.0,101700.0,5.936713695526123,0.8853742275120164,-0.022461280231937133,0.012588693064774548,0.8853742275120164,-0.244,0.268,10.370190000000001,5.936713695526123,0.035,0.023,0.236,0.0,0.0,-0.004151311703026295,0.9999913573265076,-0.008302647,0.0,0.0,0.0,0.0,0.64,0.0,0.0,0.018,5.949661493301392,3.562999963760376,False,True,False,True,True,False,False
63,0.63,0.054,0.004,0.273,-0.01660524681210518,-0.012453935109078884,-0.0,0.9997845888137817,0.00041372966,-0.02490508,-0.03321975,0.011,-0.01,0.66,-0.06,-0.006,0.017,5.949468612670898,0.05434952676296234,0.004804626107215881,0.2812855839729309,,,,,,,,0.6525978484779126,0.6095368886854353,0.6256198977645533,0.628702220187686,104900.0,100300.0,104900.0,101400.0,5.947464942932129,0.8853742275120164,-0.022461280231937133,0.012588693064774548,0.8853742275120164,-0.251,0.347,10.222190000000001,5.947464942932129,0.035,0.023,0.242,0.0,0.0,-0.004151311703026295,0.9999913573265076,-0.008302647,0.0,0.0,0.0,0.0,0.644,0.0,0.0,0.018,5.95669412612915,3.562999963760376,False,True,False,True,True,False,False
64,0.64,0.054,0.004,0.28,-0.01660524681210518,-0.012453935109078884,-0.0,0.9997845888137817,0.00041372966,-0.02490508,-0.03321975,0.008,-0.007,0.667,-0.007,0.026,0.002,5.960219860076904,0.05423340946435928,0.004690965637564659,0.28743916749954224,,,,,,,,0.6351720454718852,0.6327000839246204,0.6619668879224841,0.6115815976195926,103400.0,99000.0,104500.0,100300.0,5.956372261047363,0.4189059281300069,0.019928282597085525,0.009872587167162584,0.4189059281300069,-0.204,0.31,10.062190000000001,5.956372261047363,0.035,0.023,0.248,0.0,0.0,-0.004151311703026295,0.9999913573265076,-0.008302647,0.0,0.0,0.0,0.0,0.647,0.0,0.0,0.018,5.966929197311401,3.562999963760376,False,True,False,True,True,False,False
65,0.65,0.054,0.004,0.283,-0.01660524681210518,-0.012453935109078884,-0.0,0.9997845888137817,0.00041372966,-0.02490508,-0.03321975,0.005,-0.005,0.669,0.018,-0.028,0.02,5.969127178192139,0.05422893539071083,0.004660037346184254,0.2936314344406128,,,,,,,,0.6342717631799801,0.6051575494010834,0.6483710994125277,0.6343327992675669,102700.0,101700.0,104500.0,100000.0,5.966569900512695,0.19211108567940796,0.02391088731212329,0.01416037232013428,0.19211108567940796,-0.263,0.286,10.07719,5.966569900512695,0.035,0.023,0.254,0.0,0.0,-0.004151311703026295,0.9999913573265076,-0.008302647,0.0,0.0,0.0,0.0,0.649,0.0,0.0,0.018,5.9767608642578125,3.562999963760376,False,True,False,True,True,False,False
66,0.66,0.054,0.003,0.291,-0.01660524681210518,-0.012453935109078884,-0.0,0.9997845888137817,0.00041372966,-0.02490508,-0.03321975,0.002,-0.001,0.677,-0.017,0.001,0.015,5.979324817657471,0.05416208878159523,0.004689425230026245,0.30001604557037354,,,,,,,,0.6370031280994888,0.5717555504692149,0.6273594262607767,0.6355992980849927,102000.0,99300.0,104500.0,100300.0,5.979249477386475,0.6200350957503624,0.04428168154421302,0.014923323414969101,0.6200350957503624,-0.309,0.289,10.06019,5.979249477386475,0.035,0.023,0.261,0.0,0.0,-0.004151311703026295,0.9999913573265076,-0.008302647,0.0,0.0,0.0,0.0,0.651,0.0,0.0,0.019,5.986797094345093,3.572999954223633,False,True,False,True,True,False,False
67,0.67,0.054,0.003,0.298,-0.01660524681210518,-0.012453935109078884,-0.0,0.9997845888137817,0.00041372966,-0.02490508,-0.03321975,0.0,0.001,0.68,-0.022,0.055,0.026,5.99200439453125,0.054252784699201584,0.004634707234799862,0.30656886100769043,,,,,,,,0.6186160067139697,0.5756466010528725,0.6275272755016403,0.609704737926299,102000.0,99000.0,102700.0,99300.0,5.986282110214233,0.011367971313038834,0.017853055619134812,0.012756542305638208,0.011367971313038834,-0.223,0.313,9.860190000000001,5.986282110214233,0.035,0.023,0.267,0.0,0.0,-0.0027675412129610777,0.9999961853027344,-0.00553509,0.0,0.0,0.0,0.0,0.652,0.0,0.0,0.019,5.996221303939819,3.572999954223633,False,True,False,True,True,False,False
68,0.68,0.053,0.003,0.306,-0.01660524681210518,-0.012453935109078884,-0.0,0.9997845888137817,0.00041372966,-0.02490508,-0.03321975,-0.005,0.001,0.685,-0.012,0.076,0.033,5.999037027359009,0.053908683359622955,0.004761380143463612,0.3128223419189453,,,,,,,,0.6802929732204166,0.6157473105973907,0.6549935149156939,0.6581368734264134,100000.0,96800.0,102000.0,98400.0,5.996517181396484,0.011367971313038834,0.017853055619134812,0.012756542305638208,0.011367971313038834,-0.228,0.286,9.677190000000001,5.996517181396484,0.035,0.023,0.274,0.0,0.0,-0.0027675412129610777,0.9999961853027344,-0.00553509,0.0,0.0,0.0,0.0,0.653,0.0,0.0,0.019,6.006932973861694,3.572999954223633,False,True,False,True,True,False,False
69,0.6900000000000001,0.053,0.004,0.308,-0.01660524681210518,-0.012453935109078884,-0.0,0.9997845888137817,0.00041372966,-0.02490508,-0.03321975,-0.009,0.004,0.664,0.021,0.064,0.024,6.00927209854126,0.05379930138587952,0.004905820358544588,0.31916654109954834,,,,,,,,0.6373083085374227,0.5934843976501106,0.6470740825513085,0.6379186694132906,101700.0,97400.0,102400.0,98000.0,6.0063488483428955,0.5546044098573282,0.023147936217288473,0.01475547417410544,0.5546044098573282,-0.239,0.259,9.55419,6.0063488483428955,0.035,0.023,0.28,0.0,0.0,-0.0027675412129610777,0.9999961853027344,-0.00553509,0.0,0.0,0.0,0.0,0.653,0.0,0.0,0.019,6.018383741378784,3.572999954223633,False,True,False,True,True,False,False
70,0.7000000000000001,0.053,0.004,0.315,-0.01660524681210518,-0.01107016485184431,0.0,0.9998008608818054,0.00036773575,-0.02213773,-0.033218127,-0.012,0.008,0.663,0.035,0.067,0.018,6.019103765487671,0.053559135645627975,0.005035669542849064,0.3254626989364624,,,,,,,,0.6241550316624704,0.5787441824979019,0.6273594262607767,0.6147859922178989,101700.0,98700.0,102400.0,98700.0,6.016385078430176,0.8028381780727856,0.01121538109407187,0.013443198290989548,0.8028381780727856,-0.23,0.249,9.55419,6.016385078430176,0.035,0.023,0.287,0.0,0.0,-0.0027675412129610777,0.9999961853027344,-0.00553509,0.0,0.0,0.0,0.0,0.652,0.0,0.0,0.019,6.027024745941162,3.572999954223633,False,True,False,True,True,False,False
71,0.71,0.053,0.004,0.324,-0.01660524681210518,-0.01107016485184431,0.0,0.9998008608818054,0.00036773575,-0.02213773,-0.033218127,-0.014,0.012,0.672,0.046,0.075,0.024,6.029139995574951,0.05358351022005081,0.005041302647441626,0.3319651484489441,,,,,,,,0.6340886549172198,0.5620355535210193,0.6131532768749524,0.6233768215457389,100700.0,96800.0,102000.0,98000.0,6.025809288024902,0.8028381780727856,0.01121538109407187,0.013443198290989548,0.8028381780727856,-0.211,0.272,9.56119,6.025809288024902,0.035,0.023,0.293,0.0,0.0,-0.0027675412129610777,0.9999961853027344,-0.00553509,0.0,0.0,0.0,0.0,0.65,0.0,0.0,0.018,6.039368629455566,3.572999954223633,False,True,False,True,True,False,False
72,0.72,0.052,0.004,0.331,-0.01660524681210518,-0.01107016485184431,0.0,0.9998008608818054,0.00036773575,-0.02213773,-0.033218127,-0.016,0.015,0.669,0.035,0.116,0.028,6.038564205169678,0.053215812891721725,0.005331864580512047,0.3381906747817993,,,,,,,,0.6158236057068742,0.5766384374761577,0.6166781109330892,0.6066071564812695,99000.0,96200.0,99000.0,96800.0,6.036520957946777,0.5666285191119249,0.021057450217441064,0.012924391546501868,0.5666285191119249,-0.192,0.255,9.466190000000001,6.036520957946777,0.035,0.023,0.3,0.0,0.0,-0.0027675412129610777,0.9999961853027344,-0.00553509,0.0,0.0,0.0,0.0,0.648,0.0,0.0,0.018,6.046573162078857,3.572999954223633,False,True,False,True,True,False,False
73,0.73,0.052,0.005,0.337,-0.01660524681210518,-0.009686394594609737,0.0,0.9998152256011963,0.0003217503,-0.019370422,-0.033216696,-0.017,0.017,0.667,0.046,0.135,0.011,6.049275875091553,0.05294237658381462,0.005554305389523506,0.34429407119750977,,,,,,,,0.6547951476310369,0.6018463416495002,0.6415808346684978,0.6418554970626383,100300.0,96800.0,100300.0,97400.0,6.047971725463867,0.12175173571374075,0.025268940260929275,0.013977264057373923,0.12175173571374075,-0.156,0.253,9.325190000000001,6.047971725463867,0.035,0.023,0.306,0.0,0.0,-0.0027675412129610777,0.9999961853027344,-0.00553509,0.0,0.0,0.0,0.0,0.645,0.0,0.0,0.018,6.056958198547363,3.572999954223633,False,True,False,True,True,False,False
74,0.74,0.052,0.005,0.336,-0.01660524681210518,-0.009686394594609737,0.0,0.9998152256011963,0.0003217503,-0.019370422,-0.033216696,-0.019,0.023,0.645,0.099,0.129,0.014,6.060726642608643,0.052834998816251755,0.00588185153901577,0.35046684741973877,,,,,,,,0.622919050888838,0.5689326314183261,0.6052185854886701,0.6050659952697032,100700.0,95500.0,100300.0,96800.0,6.056612730026245,0.7743495841916533,0.02784771496147097,0.013458457312886245,0.7743495841916533,-0.133,0.237,9.33619,6.056612730026245,0.035,0.023,0.312,0.0,0.0,-0.0027675412129610777,0.9999961853027344,-0.00553509,0.0,0.0,0.0,0.0,0.642,0.0,0.0,0.018,6.068017482757568,3.578000068664551,False,True,False,True,True,False,False
75,0.75,0.052,0.005,0.348,-0.015221476554870605,-0.00830262340605259,0.0013837706064805388,0.9998487234115601,0.0030202975,-0.016561365,-0.030470219,-0.019,0.025,0.663,0.113,0.153,0.016,6.0693676471710205,0.052566736936569214,0.006169759668409824,0.35658788681030273,,,,,,,,0.6315709163042649,0.5701380941481651,0.5914091706721599,0.5939421683070115,99000.0,95200.0,99700.0,95500.0,6.068956613540649,0.24318303196765087,-0.016723887998779278,0.015411612115663387,0.24318303196765087,-0.139,0.233,9.318190000000001,6.068956613540649,0.035,0.023,0.319,0.0,0.0,-0.0027675412129610777,0.9999961853027344,-0.00553509,0.0,0.0,0.0,0.0,0.638,0.0,0.0,0.018,6.076860189437866,3.578000068664551,False,True,False,True,True,False,False
76,0.76,0.051,0.005,0.355,-0.015221476554870605,-0.00830262340605259,0.0013837706064805388,0.9998487234115601,0.0030202975,-0.016561365,-0.030470219,-0.02,0.025,0.659,0.124,0.136,0.023,6.081711530685425,0.05226408690214157,0.006423696409910917,0.36266928911209106,,,,,,,,0.598489356832227,0.5764858472571908,0.6110933089188983,0.5770656900892652,99000.0,95200.0,99300.0,94900.0,6.07616114616394,0.6905012588693065,-0.014190890363927672,0.015640497444113832,0.6905012588693065,-0.136,0.218,9.171190000000001,6.07616114616394,0.035,0.023,0.325,0.0,0.0,-0.0027675412129610777,0.9999961853027344,-0.00553509,0.0,0.0,0.0,0.0,0.633,0.0,0.0,0.018,6.086704254150391,3.578000068664551,False,True,False,True,True,False,False
77,0.77,0.051,0.005,0.362,-0.013837706297636032,-0.006918853148818016,0.0013837706064805388,0.9998793601989746,0.0029589755,-0.013798179,-0.0276974,-0.025,0.028,0.656,0.128,0.085,0.02,6.088916063308716,0.052020762115716934,0.006762234028428793,0.3686869740486145,,,,,,,,0.6458075837338827,0.6168154421301595,0.6708628976882581,0.6369878690775921,98000.0,94300.0,99000.0,94900.0,6.086546182632446,0.11955443656061647,0.05722133211261158,0.011184863050278477,0.11955443656061647,-0.102,0.189,9.020190000000001,6.086546182632446,0.035,0.023,0.331,0.0,0.0,-0.0027675412129610777,0.9999961853027344,-0.00553509,0.0,0.0,0.0,0.0,0.627,0.0,0.0,0.018,6.096827507019043,3.578000068664551,False,True,False,True,True,False,False
78,0.78,0.051,0.006,0.359,-0.013837706297636032,-0.006918853148818016,0.0013837706064805388,0.9998793601989746,0.0029589755,-0.013798179,-0.0276974,-0.026,0.029,0.608,0.106,0.059,0.028,6.099301099777222,0.05170672759413719,0.007078131195157766,0.37478262186050415,,,,,,,,0.635385671778439,0.5689478904402228,0.5968719005111772,0.6216830701152056,98000.0,95200.0,98400.0,93800.0,6.097605466842651,0.643930724040589,-0.02903791866941329,0.010543984130617228,0.643930724040589,-0.139,0.16,8.93219,6.097605466842651,0.035,0.023,0.337,0.0,0.0,-0.0027675412129610777,0.9999961853027344,-0.00553509,0.0,0.0,0.0,0.0,0.621,0.0,0.0,0.018,6.106859445571899,3.572999954223633,False,True,False,True,True,False,False
79,0.79,0.051,0.006,0.372,-0.013837706297636032,-0.006918853148818016,0.0013837706064805388,0.9998793601989746,0.0029589755,-0.013798179,-0.0276974,-0.028,0.033,0.626,0.125,0.133,0.0,6.110360383987427,0.05145852267742157,0.007504217326641083,0.3805719017982483,,,,,,,,0.6105439841306173,0.5951628900587472,0.612466620889601,0.5774929427023727,99000.0,94900.0,98000.0,94900.0,6.106448173522949,0.8001983672846571,0.0011139085984588387,0.013382162203402761,0.8001983672846571,-0.116,0.15,8.972190000000001,6.106448173522949,0.035,0.023,0.343,0.0,0.0,-0.0027675412129610777,0.9999961853027344,-0.00553509,0.0,0.0,0.0,0.0,0.615,0.0,0.0,0.017,6.117084264755249,3.572999954223633,False,True,False,True,True,False,False
80,0.8,0.05,0.007,0.379,-0.012453935109078884,-0.006918853148818016,0.0013837706064805388,0.9998975396156311,0.0029398757,-0.013802261,-0.024929423,-0.039,0.034,0.621,0.159,0.112,0.017,6.119203090667725,0.05116108059883118,0.007917612791061401,0.38630735874176025,,,,,,,,0.609094377050431,0.5771725032425421,0.6074158846417944,0.5860532539864195,98400.0,94600.0,98400.0,95200.0,6.116292238235474,0.5248493171587701,0.011978332188906692,0.012802319371328297,0.5248493171587701,-0.093,0.192,9.014190000000001,6.116292238235474,0.035,0.023,0.35,0.0,0.0,-0.0027675412129610777,0.9999961853027344,-0.00553509,0.0,0.0,0.0,0.0,0.607,0.0,0.0,0.017,6.130026578903198,3.572999954223633,False,True,False,True,True,False,False
81,0.81,0.05,0.007,0.385,-0.01107016485184431,-0.005535082425922155,0.0013837706064805388,0.9999224543571472,0.002890055,-0.011038894,-0.022157094,-0.039,0.035,0.614,0.156,0.157,0.022,6.129047155380249,0.05084266513586044,0.008317263796925545,0.3919917941093445,,,,,,,,0.6033569848172732,0.5678950179293507,0.608941786831464,0.587335011825742,99000.0,94300.0,98000.0,94600.0,6.126415491104126,0.08409246967269399,0.034439612420843826,0.01411459525444419,0.08409246967269399,-0.068,0.144,8.99919,6.126415491104126,0.035,0.023,0.355,0.0,0.0,-0.0027675412129610777,0.9999961853027344,-0.00553509,0.0,0.0,0.0,0.0,0.599,0.0,0.0,0.017,6.136821269989014,3.572999954223633,False,True,False,True,True,False,False
82,0.8200000000000001,0.05,0.007,0.391,-0.01107016485184431,-0.005535082425922155,0.0013837706064805388,0.9999224543571472,0.002890055,-0.011038894,-0.022157094,-0.04,0.038,0.606,0.132,0.183,0.026,6.139170408248901,0.05056685581803322,0.008818202652037144,0.39768314361572266,,,,,,,,0.6185854886701763,0.5645685511558709,0.6164492256046388,0.6165102616922256,98400.0,94600.0,97700.0,93800.0,6.136447429656982,0.8763714045929656,-1.5259021896696422e-05,0.017761501487754634,0.8763714045929656,-0.052,0.071,8.93219,6.136447429656982,0.035,0.023,0.361,0.0,0.0,-0.0013837706064805388,0.9999990463256836,-0.0027675421,0.0,0.0,0.0,0.0,0.591,0.0,0.0,0.017,6.147032976150513,3.578000068664551,False,True,False,True,True,False,False
83,0.8300000000000001,0.049,0.008,0.393,-0.009686394594609737,-0.004151311703026295,0.0013837706064805388,0.9999434947967529,0.0028479088,-0.008275441,-0.01938506,-0.041,0.04,0.595,0.094,0.211,0.022,6.149202346801758,0.05026247352361679,0.00929478369653225,0.4032436013221741,,,,,,,,0.6160524910353247,0.5681086442359045,0.5947814145113298,0.5742427710383764,97700.0,93500.0,97400.0,94900.0,6.146672248840332,0.7653925383382925,0.03321889066910811,0.011505302510109103,0.7653925383382925,-0.021,0.062,8.93319,6.146672248840332,0.035,0.023,0.367,0.0,0.0,-0.0013837706064805388,0.9999990463256836,-0.0027675421,0.0,0.0,0.0,0.0,0.582,0.0,0.0,0.016,6.156850576400757,3.578000068664551,False,True,False,True,True,False,False
84,0.84,0.049,0.008,0.401,-0.009686394594609737,-0.0027675412129610777,0.0013837706064805388,0.9999483227729797,0.00282106,-0.005508017,-0.019380955,-0.041,0.043,0.595,0.137,0.175,0.041,6.159427165985107,0.04990047216415405,0.009745415300130844,0.4086219072341919,,,,,,,,0.6041351949340047,0.548531319142443,0.5912870984969864,0.5961089494163424,98000.0,94300.0,98000.0,94300.0,6.159614562988281,0.9888609140154117,0.005859464408331426,0.013000686655985352,0.9888609140154117,-0.002,0.066,8.93619,6.159614562988281,0.035,0.023,0.373,0.0,0.0,-0.0013837706064805388,0.9999990463256836,-0.0027675421,0.0,0.0,0.0,0.0,0.572,0.0,0.0,0.016,6.167171478271484,3.578000068664551,False,True,False,True,True,False,False
85,0.85,0.049,0.009,0.406,-0.009686394594609737,-0.0027675412129610777,0.0013837706064805388,0.9999483227729797,0.00282106,-0.005508017,-0.019380955,-0.041,0.044,0.587,0.153,0.185,0.015,6.172369480133057,0.04961667209863663,0.010166332125663757,0.41409897804260254,,,,,,,,0.5906462195773251,0.5735866330968185,0.5928740367742428,0.5551842526894026,98400.0,93200.0,96200.0,93200.0,6.166409254074097,0.7760585946440833,0.008773937590600443,0.01283283741512169,0.7760585946440833,0.004,0.018,8.75919,6.166409254074097,0.035,0.023,0.378,0.0,0.0,-0.0013837706064805388,0.9999990463256836,-0.0027675421,0.0,0.0,0.0,0.0,0.562,0.0,0.0,0.016,6.176823377609253,3.578000068664551,False,True,False,True,True,False,False
86,0.86,0.048,0.009,0.413,-0.00830262340605259,-0.0013837706064805388,0.0013837706064805388,0.999963641166687,0.0027904327,-0.0027444663,-0.016609298,-0.041,0.046,0.582,0.187,0.154,0.015,6.179164171218872,0.049486614763736725,0.010741611011326313,0.41925907135009766,,,,,,,,0.639002059967956,0.6211795223926146,0.6428168154421302,0.6067444876783398,97100.0,92600.0,96200.0,92600.0,6.176620960235596,0.9426718547341115,0.0031280994888227666,0.015808346684977492,0.9426718547341115,-0.005,0.036,8.70119,6.176620960235596,0.035,0.023,0.384,0.0,0.0,-0.0013837706064805388,0.9999990463256836,-0.0027675421,0.0,0.0,0.0,0.0,0.552,0.0,0.0,0.016,6.187094449996948,3.572999954223633,False,True,False,True,True,False,False
87,0.87,0.048,0.01,0.41,-0.006918853148818016,-0.0,0.0013837706064805388,0.9999750852584839,0.0027674758,1.914821e-05,-0.013837803,-0.041,0.047,0.532,0.191,0.118,0.03,6.189375877380371,0.049013569951057434,0.011155257001519203,0.42456620931625366,,,,,,,,0.6149080643930724,0.5770351720454718,0.6192721446555276,0.5940947585259785,97100.0,92300.0,96200.0,93500.0,6.18643856048584,0.5398794537270161,0.04724193179217212,0.012787060349431601,0.5398794537270161,0.039,0.05,8.63719,6.18643856048584,0.035,0.023,0.389,0.0,0.0,-0.0013837706064805388,0.9999990463256836,-0.0027675421,0.0,0.0,0.0,0.0,0.541,0.0,0.0,0.015,6.197141170501709,3.572999954223633,False,True,False,True,True,False,False
88,0.88,0.048,0.01,0.42,-0.006918853148818016,0.0,0.0013837706064805388,0.9999750852584839,0.0027674758,1.914821e-05,-0.013837803,-0.04,0.048,0.538,0.179,0.11,0.031,6.199193477630615,0.04890924692153931,0.011751444078981876,0.42945414781570435,,,,,,,,0.6103456168459602,0.55556572823682,0.5927672236209659,0.5934691386282139,97100.0,93500.0,95200.0,92600.0,6.196759462356567,0.8800946059357595,-0.0037842374303807126,0.014801251239795529,0.8800946059357595,0.063,-0.034,8.64619,6.196759462356567,0.035,0.023,0.395,0.0,0.0,-0.0013837706064805388,0.9999990463256836,-0.0027675421,0.0,0.0,0.0,0.0,0.529,0.0,0.0,0.015,6.214335203170776,3.572999954223633,False,True,False,True,True,False,False
89,0.89,0.048,0.011,0.428,-0.005535082425922155,0.0013837706064805388,0.0013837706064805388,0.9999827742576599,0.002752189,0.0027828156,-0.011066413,-0.039,0.049,0.537,0.169,0.119,0.024,6.209514379501343,0.04828236252069473,0.012313944287598133,0.4343684911727905,,,,,,,,0.594171053635462,0.543755245288777,0.5993286030365453,0.5843747615777829,96800.0,92000.0,95200.0,92900.0,6.206411361694336,0.988342107270924,0.048004882887006946,0.015503166247043565,0.988342107270924,0.028,-0.019,8.64619,6.206411361694336,0.035,0.023,0.4,0.0,0.0,-0.0013837706064805388,0.9999990463256836,-0.0027675421,0.0,0.0,0.0,0.0,0.517,0.0,0.0,0.015,6.218392372131348,3.572999954223633,False,True,False,True,True,False,False
90,0.9,0.047,0.011,0.433,-0.004151311703026295,0.0013837706064805388,0.0013837706064805388,0.9999894499778748,0.0027560373,0.0027790046,-0.008298834,-0.038,0.052,0.527,0.166,0.095,0.028,6.219166278839111,0.04797586053609848,0.012846979312598705,0.43922215700149536,,,,,,,,0.5994354161898222,0.5404440375371938,0.5884489204242008,0.5839627679865721,96500.0,92600.0,95200.0,92600.0,6.216682434082031,0.31663996337834743,4.5777065690089265e-05,0.017334248874647136,0.31663996337834743,0.07,-0.019,8.607190000000001,6.216682434082031,0.035,0.023,0.405,0.0,0.0,-0.0013837706064805388,0.9999990463256836,-0.0027675421,0.0,0.0,0.0,0.0,0.505,0.0,0.0,0.014,6.227111339569092,3.578000068664551,False,True,False,True,True,False,False
91,0.91,0.047,0.012,0.439,-0.004151311703026295,0.0013837706064805388,0.0027675412129610777,0.9999865889549255,0.005523569,0.0027904857,-0.00829498,-0.039,0.054,0.515,0.147,0.114,0.038,6.229437351226807,0.04766751080751419,0.013375109061598778,0.44392460584640503,,,,,,,,0.6315556572823682,0.5862058442053865,0.6250247959105821,0.5996337834744793,96200.0,91200.0,95800.0,91700.0,6.226729154586792,0.30653849088273444,-0.006744487678339819,0.013763637750820172,0.30653849088273444,0.082,-0.022,8.63119,6.226729154586792,0.035,0.023,0.41,0.0,0.0,-0.0013837706064805388,0.9999990463256836,-0.0027675421,0.0,0.0,0.0,0.0,0.493,0.0,0.0,0.014,6.236947059631348,3.578000068664551,False,True,False,True,True,False,False
92,0.92,0.046,0.012,0.436,-0.0027675412129610777,0.0027675412129610777,0.0027675412129610777,0.9999884963035583,0.0055198134,0.0055503654,-0.0055198134,-0.038,0.055,0.485,0.143,0.096,0.03,6.239484071731567,0.04739070311188698,0.013904833234846592,0.4485151171684265,,,,,,,,0.5945067521171893,0.5758297093156328,0.6058594644083314,0.5722896162355993,97700.0,92300.0,96500.0,93200.0,6.243923187255859,0.563912413214313,0.03321889066910811,0.015075913633936065,0.563912413214313,0.099,-0.073,8.66919,6.243923187255859,0.035,0.023,0.415,0.0,0.0,-0.0013837706064805388,0.9999990463256836,-0.0027675421,0.0,0.0,0.0,0.0,0.479,0.0,0.0,0.014,6.246616363525391,3.578000068664551,False,True,False,True,True,False,False
93,0.93,0.046,0.013,0.444,-0.0027675412129610777,0.0027675412129610777,0.0027675412129610777,0.9999884963035583,0.0055198134,0.0055503654,-0.0055198134,-0.037,0.056,0.489,0.175,0.076,0.008,6.256678104400635,0.04713289439678192,0.014462850987911224,0.45317018032073975,,,,,,,,0.6123445487144275,0.5490501258869307,0.5636987869077592,0.5682764934767681,95800.0,92300.0,94900.0,92600.0,6.247980356216431,0.563912413214313,0.03321889066910811,0.015075913633936065,0.563912413214313,0.068,-0.087,8.67319,6.247980356216431,0.035,0.023,0.424,0.0,0.0,-0.0013837706064805388,0.9999990463256836,-0.0027675421,0.0,0.0,0.0,0.0,0.453,0.0,0.0,0.013,6.267346382141113,3.578000068664551,False,True,False,True,True,False,False
94,0.9400000000000001,0.046,0.013,0.452,-0.0013837706064805388,0.004151311703026295,0.0027675412129610777,0.9999865889549255,0.0055237385,0.008310267,-0.0027446246,-0.035,0.055,0.489,0.195,0.087,0.012,6.260735273361206,0.0469634123146534,0.015038946643471718,0.45768213272094727,,,,,,,,0.6165560387579156,0.5809109636072328,0.5970550087739376,0.5744106202792401,95200.0,90100.0,93500.0,90600.0,6.266535043716431,0.9322499427786679,0.0025482566567483025,0.0153505760280766,0.9322499427786679,0.123,-0.122,8.45419,6.266535043716431,0.035,0.023,0.424,0.0,0.0,-0.0013837706064805388,0.9999990463256836,-0.0027675421,0.0,0.0,0.0,0.0,0.453,0.0,0.0,0.013,6.267346382141113,3.5840001106262207,False,True,False,True,True,False,False
95,0.9500000000000001,0.046,0.014,0.457,-0.0013837706064805388,0.004151311703026295,0.0027675412129610777,0.9999865889549255,0.0055237385,0.008310267,-0.0027446246,-0.035,0.057,0.478,0.173,0.086,0.026,6.26945424079895,0.04676815867424011,0.01546186488121748,0.4616406559944153,,,,,,,,0.6139162279697872,0.5669489585717555,0.5925230792706188,0.5912718394750897,95800.0,90400.0,94300.0,90100.0,6.276204347610474,0.3399710078583963,0.011749446860456245,0.011947814145113297,0.3399710078583963,0.087,-0.143,8.398190000000001,6.276204347610474,0.035,0.023,0.428,0.0,0.0,-0.0013837706064805388,0.9999990463256836,-0.0027675421,0.0,0.0,0.0,0.0,0.439,0.0,0.0,0.012,6.2770349979400635,3.5840001106262207,False,True,False,True,True,False,False
96,0.96,0.045,0.015,0.457,0.0,0.004151311703026295,0.0027675412129610777,0.9999875426292419,0.0055352324,0.008302615,2.2978644e-05,-0.034,0.056,0.443,0.191,0.048,0.016,6.279289960861206,0.046369753777980804,0.01614830642938614,0.46571779251098633,,,,,,,,0.6139162279697872,0.5669489585717555,0.5925230792706188,0.5912718394750897,95800.0,90400.0,94300.0,90100.0,6.276204347610474,0.2890363927672236,0.020874341954680704,0.011367971313038834,0.2890363927672236,0.087,-0.143,8.398190000000001,6.276204347610474,0.035,0.023,0.432,0.0,0.0,-0.0013837706064805388,0.9999990463256836,-0.0027675421,0.0,0.0,0.0,0.0,0.425,0.0,0.0,0.012,6.2874109745025635,3.5840001106262207,False,True,False,True,True,False,False
97,0.97,0.045,0.015,0.461,0.0013837706064805388,0.004151311703026295,0.0027675412129610777,0.9999865889549255,0.0055467165,0.008294947,0.0027905817,-0.033,0.056,0.429,0.174,0.05,0.006,6.288959264755249,0.046076368540525436,0.01654805988073349,0.46985572576522827,,,,,,,,0.5962767986572061,0.5683222705424582,0.5833371480888075,0.5690547035934996,95500.0,90900.0,94300.0,91500.0,6.286484241485596,0.9514000152590218,0.01211566338597696,0.012893873502708476,0.9514000152590218,0.079,-0.14,8.36919,6.286484241485596,0.035,0.023,0.436,0.0,0.0,-0.0013837706064805388,0.9999990463256836,-0.0027675421,0.0,0.0,0.0,0.0,0.411,0.0,0.0,0.012,6.296890020370483,3.5840001106262207,False,True,False,True,True,False,False
98,0.98,0.045,0.016,0.467,0.0013837706064805388,0.005535082425922155,0.0027675412129610777,0.9999799132347107,0.005550658,0.011062509,0.0027982977,-0.032,0.057,0.423,0.162,0.037,-0.006,6.299239158630371,0.045777492225170135,0.017048384994268417,0.4736238718032837,,,,,,,,0.6098878461890593,0.556572823682002,0.5628290226596475,0.5604180971999695,94300.0,91700.0,94300.0,90400.0,6.296934366226196,0.28584725719081405,0.02647440299076829,0.015579461356527047,0.28584725719081405,0.093,-0.163,8.38419,6.296934366226196,0.035,0.023,0.441,0.0,0.0,-0.0013837706064805388,0.9999990463256836,-0.0027675421,0.0,0.0,0.0,0.0,0.396,0.0,0.0,0.011,6.309832811355591,3.5889999866485596,False,True,False,True,True,False,False
99,0.99,0.045,0.016,0.472,0.0027675412129610777,0.005535082425922155,0.0027675412129610777,0.9999769926071167,0.0055659614,0.011054817,0.0055659614,-0.03,0.057,0.413,0.187,0.018,0.019,6.309689283370972,0.04556505009531975,0.017664887011051178,0.47724688053131104,,,,,,,,0.6028992141603723,0.5422293430991073,0.5729304951552605,0.5676203555352102,94000.0,90900.0,94600.0,90400.0,6.3066229820251465,0.7773250934615091,0.02378881513694972,0.014358739604791332,0.7773250934615091,0.166,-0.15,8.46719,6.3066229820251465,0.035,0.023,0.444,0.0,0.0,-0.0013837706064805388,0.9999990463256836,-0.0027675421,0.0,0.0,0.0,0.0,0.382,0.0,0.0,0.011,6.316856145858765,3.5889999866485596,False,True,False,True,True,False,False
100,1.0,0.044,0.017,0.476,0.004151311703026295,0.005535082425922155,0.0027675412129610777,0.9999722242355347,0.005581254,0.011047104,0.008333634,-0.029,0.057,0.399,0.178,0.035,0.024,6.319377899169922,0.04548832029104233,0.01815897226333618,0.48105520009994507,,,,,,,,0.6112306401159686,0.5594110017547875,0.5763179980163271,0.5714351110093843,95500.0,90100.0,92900.0,89300.0,6.3169989585876465,0.23361562523842222,0.020813305867093918,0.010894941634241245,0.23361562523842222,0.098,-0.186,8.38419,6.3169989585876465,0.035,0.023,0.448,0.0,0.0,-0.0013837706064805388,0.9999990463256836,-0.0027675421,0.0,0.0,0.0,0.0,0.367,0.0,0.0,0.01,6.3313140869140625,3.5889999866485596,False,True,False,True,True,False,False
101,1.01,0.044,0.017,0.476,0.004151311703026295,0.005535082425922155,0.0027675412129610777,0.9999722242355347,0.005581254,0.011047104,0.008333634,-0.027,0.057,0.385,0.168,0.034,0.016,6.329753875732422,0.0451214462518692,0.01871420256793499,0.4843178391456604,,,,,,,,0.5899137865262837,0.5580529488059816,0.591958495460441,0.5762111848630502,95800.0,90400.0,94600.0,90900.0,6.326478004455566,0.43901731898985275,0.02111848630502785,0.011520561532005799,0.43901731898985275,0.114,-0.189,8.38519,6.326478004455566,0.035,0.023,0.452,0.0,0.0,-0.0013837706064805388,0.9999990463256836,-0.0027675421,0.0,0.0,0.0,0.0,0.352,0.0,0.0,0.01,6.336839914321899,3.5889999866485596,False,True,False,True,True,False,False
102,1.02,0.044,0.018,0.48,0.005535082425922155,0.005535082425922155,0.0027675412129610777,0.9999655485153198,0.0055965357,0.011039371,0.011101324,-0.026,0.055,0.371,0.14,0.014,0.0,6.339232921600342,0.04483458399772644,0.019066181033849716,0.487642765045166,,,,,,,,0.5889219501029984,0.544457160296025,0.5690547035934996,0.5700007629510948,94300.0,90900.0,93200.0,90600.0,6.339420795440674,0.5155718318455786,0.0033722438391699094,0.0153505760280766,0.5155718318455786,0.062,-0.237,8.45719,6.339420795440674,0.035,0.023,0.455,0.0,0.0,-0.0,1.0,0.0,0.0,0.0,0.0,0.0,0.337,0.0,0.0,0.009,6.346812963485718,3.5889999866485596,False,True,False,True,True,False,False
103,1.03,0.044,0.018,0.486,0.005535082425922155,0.005535082425922155,0.0027675412129610777,0.9999655485153198,0.0055965357,0.011039371,0.011101324,-0.025,0.054,0.364,0.147,-0.006,-0.004,6.352175712585449,0.044677384197711945,0.01957985758781433,0.4908364415168762,,,,,,,,0.5810330357824064,0.5526817730983444,0.5830167086289769,0.5436789501792935,95200.0,90400.0,92600.0,89800.0,6.346444129943848,0.5401083390554665,0.011734187838559548,0.014633401998931869,0.5401083390554665,0.126,-0.239,8.36719,6.346444129943848,0.035,0.023,0.458,0.0,0.0,-0.0,1.0,0.0,0.0,0.0,0.0,0.0,0.323,0.0,0.0,0.009,6.357067823410034,3.5889999866485596,False,True,False,True,True,False,False
104,1.04,0.044,0.019,0.49,0.006918853148818016,0.005535082425922155,0.0027675412129610777,0.9999569058418274,0.005611808,0.011031616,0.013869035,-0.025,0.053,0.352,0.151,-0.032,0.028,6.359199047088623,0.0446096733212471,0.020147131755948067,0.49407511949539185,,,,,,,,0.6320592050049592,0.5974822613870451,0.6196688792248417,0.5941863126573587,93800.0,89600.0,92600.0,89000.0,6.3609020709991455,0.5054703593499656,0.02026398107881285,0.013672083619439994,0.5054703593499656,0.103,-0.236,8.37819,6.3609020709991455,0.035,0.023,0.461,0.0,0.0,-0.0,1.0,0.0,0.0,0.0,0.0,0.0,0.308,0.0,0.0,0.008,6.366653919219971,3.5889999866485596,False,True,False,True,True,False,False
105,1.05,0.043,0.019,0.485,0.006918853148818016,0.005535082425922155,0.0027675412129610777,0.9999569058418274,0.005611808,0.011031616,0.013869035,-0.024,0.052,0.304,0.121,-0.013,0.016,6.373656988143921,0.04418448358774185,0.02051742561161518,0.49677562713623047,,,,,,,,0.5795529106584268,0.5595025558861677,0.6072022583352407,0.5701228351262684,93500.0,90600.0,94000.0,89800.0,6.366427898406982,0.4254673075455863,0.04029907682917525,0.008560311284046693,0.4254673075455863,0.117,-0.213,8.29819,6.366427898406982,0.035,0.023,0.464,0.0,0.0,-0.0,1.0,0.0,0.0,0.0,0.0,0.0,0.293,0.0,0.0,0.008,6.37766695022583,3.5889999866485596,False,True,False,True,True,False,False
106,1.06,0.043,0.02,0.494,0.00830262340605259,0.005535082425922155,0.0027675412129610777,0.9999463558197021,0.005627068,0.011023838,0.016636772,-0.022,0.05,0.312,0.086,-0.016,0.004,6.379182815551758,0.04408000409603119,0.02089478075504303,0.49948936700820923,,,,,,,,0.5814145113298238,0.5429922941939421,0.5896849011978332,0.5817196917677577,94300.0,91500.0,92300.0,89800.0,6.386655807495117,0.5007095445181964,0.01373311970702678,0.011566338597695888,0.5007095445181964,0.138,-0.291,8.35519,6.386655807495117,0.035,0.023,0.467,0.0,0.0,-0.0,1.0,0.0,0.0,0.0,0.0,0.0,0.279,0.0,0.0,0.008,6.389872789382935,3.5889999866485596,False,True,False,True,True,False,False
107,1.07,0.043,0.02,0.497,0.00830262340605259,0.005535082425922155,0.0027675412129610777,0.9999463558197021,0.005627068,0.011023838,0.016636772,-0.021,0.05,0.298,0.088,0.031,-0.017,6.389155864715576,0.04381722956895828,0.021423351019620895,0.5020391941070557,,,,,,,,0.6074921797512779,0.5618371862363623,0.5698939497978179,0.5650110627908751,94300.0,90900.0,91700.0,90600.0,6.396241903305054,0.10037384603646907,-0.0020447089341573206,0.012466620889600977,0.10037384603646907,0.105,-0.303,8.354190000000001,6.396241903305054,0.035,0.023,0.47,0.0,0.0,-0.0,1.0,0.0,0.0,0.0,0.0,0.0,0.264,0.0,0.0,0.007,6.396483898162842,3.5889999866485596,False,True,False,True,True,False,False
108,1.08,0.043,0.02,0.501,0.00830262340605259,0.005535082425922155,0.0027675412129610777,0.9999463558197021,0.005627068,0.011023838,0.016636772,-0.021,0.048,0.288,0.073,0.012,-0.002,6.399410724639893,0.04380849748849869,0.021772798150777817,0.5046427845954895,,,,,,,,0.6074921797512779,0.5618371862363623,0.5698939497978179,0.5650110627908751,94300.0,90900.0,91700.0,90600.0,6.396241903305054,0.4677500572213321,-0.00946059357595178,0.013824673838406958,0.4677500572213321,0.105,-0.303,8.354190000000001,6.396241903305054,0.035,0.023,0.472,0.0,0.0,-0.0,1.0,0.0,0.0,0.0,0.0,0.0,0.25,0.0,0.0,0.007,6.407111883163452,3.5889999866485596,False,True,False,True,True,False,False
109,1.09,0.043,0.021,0.504,0.009686394594609737,0.005535082425922155,0.0027675412129610777,0.9999339580535889,0.005642319,0.011016042,0.019404542,-0.02,0.044,0.272,0.074,-0.02,0.013,6.408996820449829,0.04351622983813286,0.02222680114209652,0.5068020820617676,,,,,,,,0.6159456778820478,0.601205462729839,0.6317845426108186,0.5958648050659953,95200.0,90600.0,92300.0,89600.0,6.407254934310913,0.34940108339055465,0.040878919661249714,0.007812619211108568,0.34940108339055465,0.106,-0.261,8.386190000000001,6.407254934310913,0.035,0.023,0.475,0.0,0.0,-0.0,1.0,0.0,0.0,0.0,0.0,0.0,0.236,0.0,0.0,0.006,6.417285919189453,3.5889999866485596,False,True,False,True,True,False,False
110,1.1,0.042,0.021,0.498,0.009686394594609737,0.005535082425922155,0.0027675412129610777,0.9999339580535889,0.005642319,0.011016042,0.019404542,-0.019,0.044,0.241,0.056,-0.038,-0.003,6.4200098514556885,0.04343055933713913,0.022610940039157867,0.5089514851570129,,,,,,,,0.6057068741893644,0.5783016708628977,0.5930418860151064,0.5877317463950561,95200.0,92000.0,94600.0,90600.0,6.419460773468018,0.23460746166170748,0.03295948729686427,0.012451361867704281,0.23460746166170748,0.117,-0.263,8.48619,6.419460773468018,0.035,0.023,0.477,0.0,0.0,-0.0,1.0,0.0,0.0,0.0,0.0,0.0,0.222,0.0,0.0,0.006,6.430480480194092,3.5840001106262207,False,True,False,True,True,False,False
111,1.11,0.042,0.022,0.505,0.009686394594609737,0.005535082425922155,0.0027675412129610777,0.9999339580535889,0.005642319,0.011016042,0.019404542,-0.018,0.043,0.241,0.032,-0.018,-0.012,6.432215690612793,0.043425388634204865,0.02302555739879608,0.5110992789268494,,,,,,,,0.6299687190051118,0.5414358739604791,0.5627374685282673,0.5976195925841153,95500.0,91500.0,94900.0,90900.0,6.426071882247925,0.7232166018158236,0.0349736781872282,0.011795223926146334,0.7232166018158236,0.08,-0.307,8.55119,6.426071882247925,0.035,0.023,0.479,0.0,0.0,-0.0,1.0,0.0,0.0,0.0,0.0,0.0,0.208,0.0,0.0,0.006,6.436836004257202,3.5840001106262207,False,True,False,True,True,False,False
112,1.12,0.042,0.022,0.509,0.009686394594609737,0.005535082425922155,0.0027675412129610777,0.9999339580535889,0.005642319,0.011016042,0.019404542,-0.016,0.041,0.235,0.041,0.021,0.009,6.4388267993927,0.04329309239983559,0.023399053141474724,0.513093113899231,,,,,,,,0.589044022278172,0.5486686503395133,0.58803692683299,0.5823910887312124,94600.0,91700.0,93200.0,91700.0,6.436699867248535,0.5955138475623712,0.021438925764858473,0.013641565575646601,0.5955138475623712,0.083,-0.27,8.50019,6.436699867248535,0.035,0.023,0.481,0.0,0.0,-0.0,1.0,0.0,0.0,0.0,0.0,0.0,0.195,0.0,0.0,0.005,6.447290420532227,3.5840001106262207,False,True,False,True,True,False,False
113,1.1300000000000001,0.042,0.023,0.512,0.009686394594609737,0.005535082425922155,0.0027675412129610777,0.9999339580535889,0.005642319,0.011016042,0.019404542,-0.014,0.041,0.227,0.024,0.008,0.006,6.4494547843933105,0.043228186666965485,0.02364862896502018,0.5148585438728333,,,,,,,,0.6374914168001831,0.5887846189059281,0.5975738155184253,0.5917143511100939,93800.0,91700.0,92300.0,90900.0,6.446873903274536,0.20108339055466545,0.024505989166094453,0.011932555123216601,0.20108339055466545,0.09,-0.354,8.44919,6.446873903274536,0.035,0.023,0.483,0.0,0.0,-0.0,1.0,0.0,0.0,0.0,0.0,0.0,0.182,0.0,0.0,0.005,6.459268808364868,3.5840001106262207,False,True,False,True,True,False,False
114,1.1400000000000001,0.042,0.023,0.51,0.01107016485184431,0.005535082425922155,0.0027675412129610777,0.999919593334198,0.005657559,0.011008223,0.022172345,-0.013,0.038,0.194,0.011,-0.004,0.007,6.4596288204193115,0.043085791170597076,0.02393474616110325,0.5164854526519775,,,,,,,,0.6115968566414893,0.5902037079423209,0.6017700465400168,0.5780575265125505,96200.0,90900.0,94300.0,91500.0,6.460068464279175,0.016571297779812314,-0.040283817807278556,0.009796292057679103,0.016571297779812314,0.111,-0.271,8.47319,6.460068464279175,0.035,0.023,0.486,0.0,0.0,-0.0,1.0,0.0,0.0,0.0,0.0,0.0,0.157,0.0,0.0,0.004,6.466867208480835,3.572999954223633,False,True,False,True,True,False,False
115,1.1500000000000001,0.042,0.023,0.514,0.01107016485184431,0.005535082425922155,0.0027675412129610777,0.999919593334198,0.005657559,0.011008223,0.022172345,-0.011,0.035,0.189,0.01,-0.018,-0.003,6.47282338142395,0.04321886599063873,0.024221181869506836,0.5184125900268555,,,,,,,,0.6115053025101091,0.5957579919127184,0.6087281605249103,0.5748531319142443,96200.0,90900.0,94300.0,91700.0,6.466423988342285,0.9308918898298619,0.03529411764705882,0.011947814145113297,0.9308918898298619,0.096,-0.256,8.61119,6.466423988342285,0.035,0.023,0.486,0.0,0.0,-0.0,1.0,0.0,0.0,0.0,0.0,0.0,0.157,0.0,0.0,0.004,6.476980209350586,3.572999954223633,False,True,False,True,True,False,False
116,1.16,0.042,0.023,0.516,0.01107016485184431,0.005535082425922155,0.0027675412129610777,0.999919593334198,0.005657559,0.011008223,0.022172345,-0.01,0.034,0.176,0.019,-0.074,0.005,6.4791789054870605,0.04317743703722954,0.024440597742795944,0.5195002555847168,,,,,,,,0.6124055848020142,0.5783779659723812,0.598641947051194,0.5844510566872664,95800.0,90900.0,94300.0,90900.0,6.47687840461731,0.24895094224460212,0.020752269779507133,0.013275349050125887,0.24895094224460212,0.099,-0.247,8.62419,6.47687840461731,0.035,0.023,0.488,0.0,0.0,-0.0,1.0,0.0,0.0,0.0,0.0,0.0,0.144,0.0,0.0,0.004,6.4897072315216064,3.572999954223633,False,True,False,True,True,False,False
117,1.17,0.042,0.024,0.518,0.01107016485184431,0.005535082425922155,0.0027675412129610777,0.999919593334198,0.005657559,0.011008223,0.022172345,-0.009,0.032,0.168,0.002,-0.063,0.008,6.489633321762085,0.042766280472278595,0.024685431271791458,0.5206728577613831,,,,,,,,0.6258487830930037,0.5778133821622033,0.5871213855191882,0.5880979629205768,96800.0,91700.0,94600.0,90600.0,6.488856792449951,0.4835431448844129,-0.010254062714579995,0.0081025406271458,0.4835431448844129,0.079,-0.295,8.725190000000001,6.488856792449951,0.035,0.023,0.489,0.0,0.0,-0.0,1.0,0.0,0.0,0.0,0.0,0.0,0.133,0.0,0.0,0.003,6.496622085571289,3.572999954223633,False,True,False,True,True,False,False
118,1.18,0.042,0.024,0.52,0.01107016485184431,0.004151311703026295,0.0027675412129610777,0.9999262690544128,0.0056268065,0.00824083,0.022164242,-0.008,0.03,0.157,0.0,-0.055,-0.004,6.501611709594727,0.042973391711711884,0.024969270452857018,0.5221538543701172,,,,,,,,0.6184786755168994,0.5892118715190356,0.611612115663386,0.5972991531242847,96800.0,92000.0,95200.0,92600.0,6.496455192565918,0.05355916685740444,-0.0009002822919050889,0.010864423590447852,0.05355916685740444,0.075,-0.301,8.65619,6.496455192565918,0.035,0.023,0.491,0.0,0.0,-0.0,1.0,0.0,0.0,0.0,0.0,0.0,0.121,0.0,0.0,0.003,6.506675958633423,3.568000078201294,False,True,False,True,True,False,False
119,1.19,0.042,0.024,0.518,0.01107016485184431,0.004151311703026295,0.0027675412129610777,0.9999262690544128,0.0056268065,0.00824083,0.022164242,-0.009,0.028,0.144,-0.01,-0.072,-0.004,6.509210109710693,0.042581312358379364,0.025057876482605934,0.523072361946106,,,,,,,,0.6259555962462806,0.5969634546425574,0.6144502937361715,0.6009613183794918,97400.0,94600.0,95500.0,93500.0,6.506568193435669,0.6640878919661249,0.03163195239185168,0.01121538109407187,0.6640878919661249,0.066,-0.281,8.825190000000001,6.506568193435669,0.035,0.023,0.491,0.0,0.0,-0.0,1.0,0.0,0.0,0.0,0.0,0.0,0.121,0.0,0.0,0.003,6.506675958633423,3.568000078201294,False,True,False,True,True,False,False
120,1.2,0.042,0.024,0.519,0.01107016485184431,0.004151311703026295,0.0027675412129610777,0.9999262690544128,0.0056268065,0.00824083,0.022164242,-0.008,0.026,0.133,-0.034,-0.057,-0.008,6.519323110580444,0.042527228593826294,0.025345858186483383,0.523993968963623,,,,,,,,0.6121614404516671,0.5764858472571908,0.6103913939116503,0.6019378957808804,97100.0,93500.0,95800.0,92900.0,6.5192952156066895,0.042633707179369804,0.02511635004196231,0.007598992904554818,0.042633707179369804,0.106,-0.287,8.92919,6.5192952156066895,0.035,0.023,0.492,0.0,0.0,-0.0,1.0,0.0,0.0,0.0,0.0,0.0,0.111,0.0,0.0,0.003,6.517254114151001,3.568000078201294,False,True,False,True,True,False,False
121,1.21,0.041,0.025,0.522,0.01107016485184431,0.004151311703026295,0.0027675412129610777,0.9999262690544128,0.0056268065,0.00824083,0.022164242,-0.007,0.025,0.131,-0.044,-0.045,-0.001,6.532050132751465,0.04272310063242912,0.02564975805580616,0.5249550342559814,,,,,,,,0.6178530556191348,0.5690547035934996,0.60683604180972,0.6097352559700924,95800.0,94000.0,95200.0,91700.0,6.526210069656372,0.042633707179369804,0.02511635004196231,0.007598992904554818,0.042633707179369804,0.085,-0.251,8.91619,6.526210069656372,0.035,0.023,0.494,0.0,0.0,-0.0,1.0,0.0,0.0,0.0,0.0,0.0,0.091,0.0,0.0,0.002,6.536827325820923,3.568000078201294,False,True,False,True,True,False,False
122,1.22,0.041,0.025,0.524,0.009686394594609737,0.004151311703026295,0.0027675412129610777,0.9999406337738037,0.0056153964,0.008248609,0.019396493,-0.006,0.022,0.123,-0.056,-0.031,-0.007,6.5389649868011475,0.04260353744029999,0.02566114068031311,0.5258602499961853,,,,,,,,0.681879911497673,0.64785229266804,0.6397955291065842,0.6404974441138322,97100.0,92900.0,96800.0,92900.0,6.536263942718506,0.7367818722819868,0.02865644312199588,0.01126115815976196,0.7367818722819868,0.046,-0.287,8.96019,6.536263942718506,0.035,0.023,0.495,0.0,0.0,-0.0,1.0,0.0,0.0,0.0,0.0,0.0,0.072,0.0,0.0,0.002,6.546667814254761,3.552000045776367,False,True,False,True,True,False,False
123,1.23,0.041,0.025,0.517,0.009686394594609737,0.004151311703026295,0.0027675412129610777,0.9999406337738037,0.0056153964,0.008248609,0.019396493,-0.005,0.021,0.077,-0.039,-0.008,-0.011,6.549018859863281,0.04293675720691681,0.02576286531984806,0.5265772938728333,,,,,,,,0.6535286488136111,0.5992675669489586,0.6326237888151369,0.6417181658655681,97700.0,94300.0,97100.0,94600.0,6.546842098236084,0.23773556115053024,0.038452735179674985,0.012375066758220797,0.23773556115053024,0.079,-0.303,9.01919,6.546842098236084,0.035,0.023,0.496,0.0,0.0,-0.0,1.0,0.0,0.0,0.0,0.0,0.0,0.064,0.0,0.0,0.001,6.556969881057739,3.552000045776367,False,True,False,True,True,False,False
124,1.24,0.041,0.025,0.522,0.009686394594609737,0.004151311703026295,0.0027675412129610777,0.9999406337738037,0.0056153964,0.008248609,0.019396493,-0.005,0.018,0.085,-0.053,-0.006,0.0,6.559597015380859,0.042693138122558594,0.025974158197641373,0.5275591611862183,,,,,,,,0.6364690623331044,0.5901731898985275,0.6218814373998627,0.6183108262760357,99000.0,94900.0,95800.0,94300.0,6.5565407276153564,0.02677958342870222,0.02340733958953231,0.008087281605249104,0.02677958342870222,0.111,-0.277,9.23419,6.5565407276153564,0.035,0.023,0.496,0.0,0.0,-0.0,1.0,0.0,0.0,0.0,0.0,0.0,0.064,0.0,0.0,0.001,6.566660642623901,3.552000045776367,False,True,False,True,True,False,False
125,1.25,0.041,0.025,0.525,0.009686394594609737,0.0027675412129610777,0.0027675412129610777,0.9999454021453857,0.005588508,0.005481193,0.019388555,-0.003,0.015,0.092,-0.07,-0.022,0.003,6.569295644760132,0.042617108672857285,0.02602514438331127,0.5281942486763,,,,,,,,0.6149385824368658,0.6003204394598306,0.6207064927138171,0.6044403753719386,98700.0,94300.0,97400.0,95200.0,6.566415309906006,0.21304646372167543,0.0031738765545128557,0.008682383459220264,0.21304646372167543,0.074,-0.294,9.31319,6.566415309906006,0.035,0.023,0.497,0.0,0.0,-0.0,1.0,0.0,0.0,0.0,0.0,0.0,0.056,0.0,0.0,0.001,6.5811121463775635,3.552000045776367,False,True,False,True,True,False,False
126,1.26,0.041,0.025,0.527,0.009686394594609737,0.0027675412129610777,0.0027675412129610777,0.9999454021453857,0.005588508,0.005481193,0.019388555,-0.002,0.014,0.092,-0.092,-0.032,-0.021,6.579170227050781,0.042522355914115906,0.026037968695163727,0.5284680128097534,,,,,,,,0.6238498512245365,0.5962920576791028,0.6165560387579156,0.5998626688029297,98400.0,95800.0,97700.0,94300.0,6.576255798339844,0.9710383764400702,-0.0006408789196612497,0.00955214770733196,0.9710383764400702,0.059,-0.259,9.33219,6.576255798339844,0.035,0.023,0.497,0.0,0.0,-0.0,1.0,0.0,0.0,0.0,0.0,0.0,0.049,0.0,0.0,0.001,6.586793899536133,3.562999963760376,False,True,False,True,True,False,False
127,1.27,0.041,0.025,0.527,0.00830262340605259,0.0027675412129610777,0.0027675412129610777,0.9999578595161438,0.005580918,0.005488921,0.01662088,-0.002,0.013,0.087,-0.075,-0.087,0.001,6.589010715484619,0.04262008145451546,0.026119308546185493,0.5289850831031799,,,,,,,,0.6593575951781491,0.6120851453421836,0.6444647898069734,0.6584725719081407,99000.0,96200.0,97100.0,95200.0,6.586557865142822,0.9776913099870298,0.0019378957808804456,0.01062027924010071,0.9776913099870298,0.052,-0.237,9.28819,6.586557865142822,0.035,0.023,0.497,0.0,0.0,-0.0,1.0,0.0,0.0,0.0,0.0,0.0,0.049,0.0,0.0,0.001,6.586793899536133,3.562999963760376,False,True,False,True,True,False,False
128,1.28,0.041,0.026,0.521,0.00830262340605259,0.0027675412129610777,0.0027675412129610777,0.9999578595161438,0.005580918,0.005488921,0.01662088,-0.001,0.011,0.064,-0.061,-0.064,-0.013,6.599312782287598,0.042265407741069794,0.02616342157125473,0.5294268727302551,,,,,,,,0.6480964370183872,0.5952391851682307,0.6244449530785077,0.6318303196765087,100300.0,96200.0,99300.0,94900.0,6.596248626708984,0.3257190814068818,0.03271534294651713,0.00933852140077821,0.3257190814068818,0.046,-0.237,9.382190000000001,6.596248626708984,0.035,0.023,0.498,0.0,0.0,-0.0,1.0,0.0,0.0,0.0,0.0,0.0,0.042,0.0,0.0,0.001,6.596969842910767,3.562999963760376,False,True,False,True,True,False,False
129,1.29,0.041,0.026,0.525,0.00830262340605259,0.0027675412129610777,0.0027675412129610777,0.9999578595161438,0.005580918,0.005488921,0.01662088,0.0,0.009,0.074,-0.066,-0.046,0.007,6.60900354385376,0.04252142086625099,0.026227779686450958,0.5300807356834412,,,,,,,,0.6449073014419776,0.5792324711985962,0.6006561379415579,0.633371480888075,100700.0,96800.0,98400.0,96500.0,6.6107001304626465,0.8758525978484779,0.013214312962539101,0.009918364232852674,0.8758525978484779,0.039,-0.246,9.48019,6.6107001304626465,0.035,0.023,0.498,0.0,0.0,-0.0,1.0,0.0,0.0,0.0,0.0,0.0,0.03,0.0,0.0,0.0,6.607203006744385,3.562999963760376,False,True,False,True,True,False,False
130,1.3,0.041,0.026,0.528,0.00830262340605259,0.0027675412129610777,0.0027675412129610777,0.9999578595161438,0.005580918,0.005488921,0.01662088,0.0,0.008,0.078,-0.085,0.011,-0.014,6.623455047607422,0.042531199753284454,0.02626660466194153,0.5304452776908875,,,,,,,,0.625986114290074,0.5980010681315328,0.6159151598382544,0.5956206607156481,99000.0,94900.0,98000.0,95200.0,6.616381883621216,0.764965285725185,0.01496910048065919,0.009109636072327764,0.764965285725185,0.027,-0.244,9.479190000000001,6.616381883621216,0.035,0.023,0.499,0.0,0.0,-0.0,1.0,0.0,0.0,0.0,0.0,0.0,0.021,0.0,0.0,0.0,6.626959800720215,3.5409998893737793,False,True,False,True,True,False,False
131,1.31,0.041,0.026,0.529,0.006918853148818016,0.0027675412129610777,0.0027675412129610777,0.999968409538269,0.0055733174,0.0054966393,0.01385324,0.0,0.006,0.079,-0.077,-0.039,0.011,6.629136800765991,0.04268176481127739,0.02631765604019165,0.5307875871658325,,,,,,,,0.625986114290074,0.5980010681315328,0.6159151598382544,0.5956206607156481,99000.0,94900.0,98000.0,95200.0,6.616381883621216,0.4482642862592508,0.012909132524605172,0.010803387502861066,0.4482642862592508,0.027,-0.244,9.479190000000001,6.616381883621216,0.035,0.023,0.499,0.0,0.0,-0.0,1.0,0.0,0.0,0.0,0.0,0.0,0.021,0.0,0.0,0.0,6.637199401855469,3.5409998893737793,False,True,False,True,True,False,False
132,1.32,0.041,0.026,0.522,0.006918853148818016,0.0013837706064805388,0.0027675412129610777,0.9999712705612183,0.005554121,0.0027291689,0.013845462,0.0,0.005,0.04,-0.074,-0.037,-0.008,6.639312744140625,0.04270714521408081,0.02618464268743992,0.5311383008956909,,,,,,,,0.6255283436331731,0.6193636987869078,0.6469825284199283,0.6027924010070954,101000.0,95500.0,98400.0,97400.0,6.636790990829468,0.7548027771419852,-0.005493247882810712,0.010299839780270085,0.7548027771419852,0.012,-0.206,9.514190000000001,6.636790990829468,0.035,0.023,0.499,0.0,0.0,-0.0,1.0,0.0,0.0,0.0,0.0,0.0,0.016,0.0,0.0,0.0,6.646852016448975,3.5409998893737793,False,True,False,True,True,False,False
133,1.33,0.041,0.026,0.527,0.006918853148818016,0.0013837706064805388,0.0027675412129610777,0.9999712705612183,0.005554121,0.0027291689,0.013845462,0.0,0.002,0.07,-0.074,-0.085,0.011,6.649545907974243,0.04264027997851372,0.026210187003016472,0.5315037965774536,,,,,,,,0.6477759975585565,0.6037994964522774,0.6170443274586099,0.631113145647364,100300.0,97700.0,101000.0,96200.0,6.646543264389038,0.6943770504310673,0.03656061646448463,0.007049668116273747,0.6943770504310673,-0.001,-0.196,9.767190000000001,6.646543264389038,0.035,0.023,0.499,0.0,0.0,-0.0,1.0,0.0,0.0,0.0,0.0,0.0,0.016,0.0,0.0,0.0,6.646852016448975,3.5409998893737793,False,True,False,True,True,False,False
134,1.34,0.042,0.026,0.528,0.005535082425922155,0.0013837706064805388,0.0027675412129610777,0.9999799132347107,0.005550339,0.0027368518,0.01107787,0.001,0.001,0.067,-0.061,-0.072,-0.016,6.6592981815338135,0.042659807950258255,0.026121897622942924,0.5318087339401245,,,,,,,,0.6313267719539177,0.588387884336614,0.6133821622034028,0.6195773250934615,100000.0,96800.0,99000.0,95500.0,6.656547784805298,0.06939803158617533,0.03567559319447623,0.01095597772182803,0.06939803158617533,0.02,-0.175,9.75019,6.656547784805298,0.035,0.023,0.499,0.0,0.0,-0.0,1.0,0.0,0.0,0.0,0.0,0.0,0.013,0.0,0.0,0.0,6.662370920181274,3.568000078201294,False,True,False,True,True,False,False
135,1.35,0.042,0.026,0.53,0.005535082425922155,0.0013837706064805388,0.0027675412129610777,0.9999799132347107,0.005550339,0.0027368518,0.01107787,0.001,0.0,0.076,-0.073,-0.018,-0.006,6.669302701950073,0.042866580188274384,0.02615634724497795,0.5321400165557861,,,,,,,,0.6762493324177921,0.6382543678950179,0.6597390707255665,0.6631876096742199,100000.0,95800.0,99000.0,96500.0,6.666787385940552,0.31912718394750894,0.019455252918287938,0.007125963225757229,0.31912718394750894,0.039,-0.178,9.58719,6.666787385940552,0.035,0.023,0.499,0.0,0.0,-0.0,1.0,0.0,0.0,0.0,0.0,0.0,0.01,0.0,0.0,0.0,6.670206546783447,3.568000078201294,False,True,False,True,True,False,False
136,1.36,0.042,0.026,0.523,0.005535082425922155,0.0013837706064805388,0.0027675412129610777,0.9999799132347107,0.005550339,0.0027368518,0.01107787,0.001,-0.001,0.04,-0.087,-0.004,-0.012,6.679542303085327,0.04278027266263962,0.02608955092728138,0.5325605869293213,,,,,,,,0.6626077668421454,0.6559548332951858,0.677256427862974,0.6497901884489204,100700.0,96200.0,99000.0,96500.0,6.676440000534058,0.7160296025024796,-0.01416037232013428,0.0073701075761043715,0.7160296025024796,0.039,-0.175,9.55419,6.676440000534058,0.035,0.023,0.499,0.0,0.0,-0.0,1.0,0.0,0.0,0.0,0.0,0.0,0.007,0.0,0.0,0.0,6.6776838302612305,3.568000078201294,False,True,False,True,True,False,False
137,1.37,0.042,0.026,0.523,0.005535082425922155,0.0013837706064805388,0.0027675412129610777,0.9999799132347107,0.005550339,0.0027368518,0.01107787,0.002,-0.001,0.038,-0.102,-0.046,-0.006,6.689194917678833,0.04267219081521034,0.02600412257015705,0.5327022075653076,,,,,,,,0.636942092011902,0.6301976043335622,0.639658197909514,0.6199740596627756,101000.0,97700.0,99000.0,98000.0,6.691958904266357,0.0036774242771038376,0.05142290379186694,0.0063935301747158006,0.0036774242771038376,0.02,-0.187,9.72119,6.691958904266357,0.035,0.023,0.499,0.0,0.0,-0.0,1.0,0.0,0.0,0.0,0.0,0.0,0.003,0.0,0.0,0.0,6.697314500808716,3.568000078201294,False,True,False,True,True,False,False
138,1.3800000000000001,0.042,0.025,0.528,0.004151311703026295,0.0,0.0027675412129610777,0.9999875426292419,0.005535042,-2.2977852e-05,0.008302615,0.002,-0.003,0.062,-0.082,-0.08,-0.015,6.704713821411133,0.042700283229351044,0.025940891355276108,0.5329172015190125,,,,,,,,0.635233081559472,0.5990386816205081,0.6211947814145113,0.6289463645380331,99700.0,97100.0,100000.0,96500.0,6.69979453086853,0.10667582207980468,0.035828183413443196,0.00886549172198062,0.10667582207980468,-0.008,-0.138,9.74719,6.69979453086853,0.035,0.023,0.499,0.0,0.0,-0.0,1.0,0.0,0.0,0.0,0.0,0.0,0.002,0.0,0.0,0.0,6.707336187362671,3.568000078201294,False,True,False,True,True,False,False
139,1.3900000000000001,0.042,0.025,0.531,0.004151311703026295,0.0,0.0027675412129610777,0.9999875426292419,0.005535042,-2.2977852e-05,0.008302615,0.002,-0.004,0.069,-0.086,-0.039,-0.015,6.712549448013306,0.04272051155567169,0.025841016322374344,0.5330179333686829,,,,,,,,0.6667429617761501,0.6492866407263295,0.6575875486381323,0.6487373159380484,101700.0,96200.0,98000.0,97700.0,6.717561721801758,0.8313572899977112,0.024170290684367133,0.0046082246128023195,0.8313572899977112,0.005,-0.15,9.568190000000001,6.717561721801758,0.035,0.023,0.499,0.0,0.0,-0.0,1.0,0.0,0.0,0.0,0.0,0.0,0.002,0.0,0.0,0.0,6.707336187362671,3.568000078201294,False,True,False,True,True,False,False
140,1.4000000000000001,0.042,0.025,0.531,0.004151311703026295,0.0,0.0027675412129610777,0.9999875426292419,0.005535042,-2.2977852e-05,0.008302615,0.002,-0.004,0.069,-0.077,0.009,-0.014,6.720026731491089,0.042828984558582306,0.02569853514432907,0.5334205031394958,,,,,,,,0.6355230029755092,0.6178225375753414,0.6303349355306325,0.6181277180132754,99700.0,98000.0,100700.0,96200.0,6.726902484893799,0.3350423437857633,0.004592965590905623,0.009033340962844283,0.3350423437857633,0.044,-0.146,9.668190000000001,6.726902484893799,0.035,0.023,0.499,0.0,0.0,-0.0,1.0,0.0,0.0,0.0,0.0,0.0,0.0,0.0,0.0,0.0,6.727086782455444,3.568000078201294,False,True,False,True,True,False,False
141,1.41,0.042,0.025,0.525,0.0027675412129610777,0.0,0.0027675412129610777,0.999992311000824,0.0055350685,-1.5318568e-05,0.0055350685,0.002,-0.007,0.048,-0.064,-0.019,-0.012,6.730316638946533,0.04279925674200058,0.025597915053367615,0.5334733128547668,,,,,,,,0.6355230029755092,0.6178225375753414,0.6303349355306325,0.6181277180132754,99700.0,98000.0,100700.0,96200.0,6.726902484893799,0.40656137941557946,0.024795910582131684,0.00848401617456321,0.40656137941557946,0.044,-0.146,9.668190000000001,6.726902484893799,0.035,0.023,0.499,0.0,0.0,-0.0,1.0,0.0,0.0,0.0,0.0,0.0,0.0,0.0,0.0,0.0,6.738993883132935,3.568000078201294,False,True,False,True,True,False,False
142,1.42,0.042,0.025,0.531,0.0027675412129610777,-0.0,0.0027675412129610777,0.999992311000824,0.0055350685,-1.5318568e-05,0.0055350685,0.001,-0.009,0.069,-0.079,-0.067,-0.01,6.739657402038574,0.04276571422815323,0.02544674277305603,0.533693790435791,,,,,,,,0.6310673685816739,0.6122377355611506,0.6431830319676509,0.6198367284657054,100000.0,98700.0,98700.0,96200.0,6.736924171447754,0.5306477454795148,0.06709391927977416,0.012100404364080263,0.5306477454795148,-0.003,-0.131,9.74919,6.736924171447754,0.035,0.023,0.5,0.0,0.0,-0.0,1.0,0.0,0.0,0.0,0.0,0.0,0.0,0.0,0.0,0.0,6.748187065124512,3.556999921798706,False,True,False,True,True,False,False
143,1.43,0.042,0.024,0.532,0.0027675412129610777,-0.0,0.0027675412129610777,0.999992311000824,0.0055350685,-1.5318568e-05,0.0055350685,0.002,-0.009,0.068,-0.108,-0.051,0.011,6.749679088592529,0.04286109283566475,0.025341801345348358,0.5338512659072876,,,,,,,,0.6395208667124437,0.5825436789501793,0.6328679331654841,0.6539559014267186,100000.0,96200.0,100000.0,98000.0,6.747036695480347,0.7331044480048828,0.0038452735179674985,0.007400625619897764,0.7331044480048828,0.002,-0.124,9.74419,6.747036695480347,0.035,0.023,0.5,0.0,0.0,-0.0,1.0,0.0,0.0,0.0,0.0,0.0,0.0,0.0,0.0,0.0,6.760026693344116,3.556999921798706,False,True,False,True,True,False,False
144,1.44,0.042,0.024,0.533,0.0013837706064805388,-0.0,0.0027675412129610777,0.999995231628418,0.0055350843,-7.659284e-06,0.0027675314,0.001,-0.009,0.067,-0.135,0.013,0.0,6.759791612625122,0.04278860241174698,0.025289423763751984,0.5339600443840027,,,,,,,,0.662378881513695,0.6364995803768978,0.6677500572213321,0.6608529793240253,101000.0,95800.0,100000.0,97100.0,6.756674766540527,0.4907148851758602,0.03134203097581445,0.007003891050583658,0.4907148851758602,-0.031,-0.084,9.66519,6.756674766540527,0.035,0.023,0.5,0.0,0.0,-0.0,1.0,0.0,0.0,0.0,0.0,0.0,0.0,0.0,0.0,0.0,6.766628980636597,3.556999921798706,False,True,False,True,True,False,False
145,1.45,0.042,0.024,0.529,0.0013837706064805388,-0.0,0.0027675412129610777,0.999995231628418,0.0055350843,-7.659284e-06,0.0027675314,0.001,-0.01,0.044,-0.125,-0.0,-0.008,6.769429683685303,0.04296926036477089,0.025165796279907227,0.5343918800354004,,,,,,,,0.6729076066224156,0.6463263904783704,0.6566109712367437,0.6568245975432975,100700.0,97400.0,101000.0,98000.0,6.768581867218018,0.30029755092698557,0.021774624246585793,0.008422980086976424,0.30029755092698557,-0.016,-0.054,9.722190000000001,6.768581867218018,0.035,0.023,0.5,0.0,0.0,-0.0,1.0,0.0,0.0,0.0,0.0,0.0,0.0,0.0,0.0,0.0,6.7768871784210205,3.556999921798706,False,True,False,True,True,False,False
146,1.46,0.042,0.024,0.529,0.0013837706064805388,-0.0,0.0027675412129610777,0.999995231628418,0.0055350843,-7.659284e-06,0.0027675314,0.001,-0.01,0.043,-0.082,-0.018,-0.008,6.781336784362793,0.04283314198255539,0.024996452033519745,0.5344372987747192,,,,,,,,0.6584267948424506,0.6326085297932402,0.6452735179674983,0.6286106660563058,102000.0,97100.0,101000.0,98000.0,6.777775049209595,0.8209658960860609,0.009231708247501335,0.010238803692683299,0.8209658960860609,-0.024,-0.082,9.889190000000001,6.777775049209595,0.035,0.023,0.5,0.0,0.0,-0.0,1.0,0.0,0.0,0.0,0.0,0.0,0.0,0.0,0.0,0.0,6.787309408187866,3.552000045776367,False,True,False,True,True,False,False
147,1.47,0.042,0.024,0.533,0.0,-0.0,0.0027675412129610777,0.9999961853027344,0.00553509,-0.0,0.0,0.001,-0.011,0.055,-0.046,-0.039,0.01,6.79052996635437,0.04294896125793457,0.02490723505616188,0.5346500277519226,,,,,,,,0.6306248569466697,0.6236972610055695,0.6655374990463111,0.6398107881284809,101000.0,98400.0,99700.0,96200.0,6.789614677429199,0.07231250476844435,-6.103608758678569e-05,0.00772106507972839,0.07231250476844435,-0.025,-0.056,9.96519,6.789614677429199,0.035,0.023,0.5,0.0,0.0,-0.0,1.0,0.0,0.0,0.0,0.0,0.0,0.0,0.0,0.0,0.0,6.79709529876709,3.552000045776367,False,True,False,True,True,False,False
148,1.48,0.042,0.024,0.533,0.0,-0.0013837706064805388,0.0027675412129610777,0.999995231628418,0.0055351052,-0.0027675314,-7.659313e-06,0.0,-0.011,0.056,-0.08,-0.046,-0.002,6.802369594573975,0.042832277715206146,0.02478356473147869,0.5347900390625,,,,,,,,0.6887769893949798,0.6336919203479057,0.663080796520943,0.6823376821545739,102000.0,98000.0,102400.0,100000.0,6.8064751625061035,0.7457389181353475,0.026031891355764097,0.008560311284046693,0.7457389181353475,-0.063,-0.058,9.940190000000001,6.8064751625061035,0.035,0.023,0.5,0.0,0.0,-0.0,1.0,0.0,0.0,0.0,0.0,0.0,0.0,0.0,0.0,0.0,6.806854009628296,3.552000045776367,False,True,False,True,True,False,False
149,1.49,0.042,0.024,0.534,-0.0,-0.0013837706064805388,0.0027675412129610777,0.999995231628418,0.0055351052,-0.0027675314,-7.659313e-06,0.0,-0.012,0.057,-0.11,-0.018,-0.003,6.808971881866455,0.04278341680765152,0.024609340354800224,0.5350356101989746,,,,,,,,0.6887769893949798,0.6336919203479057,0.663080796520943,0.6823376821545739,102000.0,98000.0,102400.0,100000.0,6.8064751625061035,0.3974212252994583,0.03480582894636454,0.010711833371480888,0.3974212252994583,-0.063,-0.058,9.940190000000001,6.8064751625061035,0.035,0.023,0.5,0.0,0.0,-0.0,1.0,0.0,0.0,0.0,0.0,0.0,0.0,0.0,0.0,0.0,6.817286729812622,3.552000045776367,False,True,False,True,True,False,False
150,1.5,0.042,0.023,0.527,-0.0013837706064805388,-0.0013837706064805388,0.0027675412129610777,0.9999942779541016,0.0055389297,-0.0027598697,-0.0027751988,0.0,-0.012,0.043,-0.099,0.018,0.007,6.819230079650879,0.04283779114484787,0.024513421580195427,0.5352431535720825,,,,,,,,0.6438391699092089,0.5855191882200351,0.6317235065232318,0.6536049439230945,102700.0,98400.0,101000.0,,6.816897392272949,0.9396047913328756,0.0405279621576257,0.010452429999237048,0.9396047913328756,-0.002,-0.032,10.09519,6.816897392272949,0.035,0.023,0.5,0.0,0.0,-0.0,1.0,0.0,0.0,0.0,0.0,0.0,0.0,0.0,0.0,0.0,6.827120780944824,3.556999921798706,False,True,False,True,True,False,False
151,1.51,0.042,0.023,0.534,-0.0013837706064805388,-0.0013837706064805388,0.0027675412129610777,0.9999942779541016,0.0055389297,-0.0027598697,-0.0027751988,0.0,-0.011,0.069,-0.084,0.05,0.003,6.829652309417725,0.04281178116798401,0.02436249703168869,0.5354910492897034,,,,,,,,0.6438391699092089,0.5855191882200351,0.6317235065232318,0.6536049439230945,102700.0,98400.0,101000.0,,6.826683282852173,0.2781719691767758,-0.02806134126802472,0.009979400320439459,0.2781719691767758,-0.002,-0.032,10.09519,6.826683282852173,0.035,0.023,0.5,0.0,0.0,-0.0,1.0,0.0,0.0,0.0,0.0,0.0,0.0,0.0,0.0,0.0,6.827120780944824,3.556999921798706,False,True,False,True,True,False,False
152,1.52,0.042,0.023,0.534,-0.0013837706064805388,-0.0013837706064805388,0.0027675412129610777,0.9999942779541016,0.0055389297,-0.0027598697,-0.0027751988,0.0,-0.011,0.069,-0.084,0.05,0.003,6.839438199996948,0.04285333305597305,0.024152018129825592,0.5361171364784241,,,,,,,,0.6747539482719158,0.6301976043335622,0.6491798275730526,0.654184786755169,100000.0,98000.0,100300.0,96500.0,6.836441993713379,0.585626001373312,0.005294880598153659,0.010330357824063477,0.585626001373312,-0.008,-0.024,9.898190000000001,6.836441993713379,0.035,0.023,0.5,0.0,0.0,-0.0,1.0,0.0,0.0,0.0,0.0,0.0,0.0,0.0,0.0,0.0,6.840351819992065,3.556999921798706,False,True,False,True,True,False,False
153,1.53,0.042,0.023,0.534,-0.0013837706064805388,-0.0013837706064805388,0.0027675412129610777,0.9999942779541016,0.0055389297,-0.0027598697,-0.0027751988,0.0,-0.011,0.069,-0.084,0.05,0.003,6.839438199996948,0.04285333305597305,0.024152018129825592,0.5361171364784241,,,,,,,,0.6747539482719158,0.6301976043335622,0.6491798275730526,0.654184786755169,100000.0,98000.0,100300.0,96500.0,6.836441993713379,0.585626001373312,0.005294880598153659,0.010330357824063477,0.585626001373312,-0.008,-0.024,9.898190000000001,6.836441993713379,0.035,0.023,0.5,0.0,0.0,-0.0,1.0,0.0,0.0,0.0,0.0,0.0,0.0,0.0,0.0,0.0,6.840351819992065,3.556999921798706,False,True,False,True,True,False,False
154,1.54,0.041,0.023,0.533,-0.0027675412129610777,-0.0013837706064805388,0.0027675412129610777,0.9999913573265076,0.005542743,-0.002752202,-0.005542743,0.0,-0.009,0.074,-0.022,-0.008,-0.003,6.8596296310424805,0.04279301315546036,0.023943327367305756,0.5366941094398499,,,,,,,,0.6529030289158465,0.5989471274891279,0.6207064927138171,0.6365758754863813,101000.0,98400.0,101000.0,97100.0,6.856708765029907,0.7542534523537041,-0.03506523231860838,0.014618142977035172,0.7542534523537041,-0.039,-0.052,9.80519,6.856708765029907,0.035,0.023,0.5,0.0,0.0,-0.0,1.0,0.0,0.0,0.0,0.0,0.0,0.0,0.0,0.0,0.0,6.867069959640503,3.568000078201294,False,True,False,True,True,False,False
155,1.55,0.041,0.023,0.533,-0.0027675412129610777,-0.0013837706064805388,0.0027675412129610777,0.9999913573265076,0.005542743,-0.002752202,-0.005542743,0.0,-0.009,0.074,-0.022,-0.008,-0.003,6.8596296310424805,0.04279301315546036,0.023943327367305756,0.5366941094398499,,,,,,,,0.6529030289158465,0.5989471274891279,0.6207064927138171,0.6365758754863813,101000.0,98400.0,101000.0,97100.0,6.856708765029907,0.7542534523537041,-0.03506523231860838,0.014618142977035172,0.7542534523537041,-0.039,-0.052,9.80519,6.856708765029907,0.035,0.023,0.5,0.0,0.0,-0.0,1.0,0.0,0.0,0.0,0.0,0.0,0.0,0.0,0.0,0.0,6.867069959640503,3.568000078201294,False,True,False,True,True,False,False
156,1.56,0.041,0.023,0.533,-0.0027675412129610777,-0.0013837706064805388,0.0027675412129610777,0.9999913573265076,0.005542743,-0.002752202,-0.005542743,0.0,-0.009,0.074,-0.022,-0.008,-0.003,6.869463682174683,0.042818889021873474,0.023890428245067596,0.5370080471038818,,,,,,,,0.629251544975967,0.5928435187304494,0.6218966964217594,0.6052643625543602,100000.0,96800.0,98400.0,97100.0,6.869939804077148,0.0037079423208972303,0.029602502479591057,0.00959792477302205,0.0037079423208972303,-0.021,-0.017,9.735190000000001,6.869939804077148,0.035,0.023,0.5,0.0,0.0,-0.0,1.0,0.0,0.0,0.0,0.0,0.0,0.0,0.0,0.0,0.0,6.867069959640503,3.568000078201294,False,True,False,True,True,False,False
157,1.57,0.041,0.023,0.536,-0.0027675412129610777,-0.0013837706064805388,0.0027675412129610777,0.9999913573265076,0.005542743,-0.002752202,-0.005542743,0.0,-0.01,0.082,-0.053,0.004,0.011,6.892378330230713,0.04284052178263664,0.02376725524663925,0.5376213192939758,,,,,,,,0.6443579766536965,0.5749904631113145,0.6320592050049592,0.6468604562447547,101000.0,96500.0,98700.0,95800.0,6.896657943725586,0.4964980544747082,0.04783703364614328,0.01297016861219196,0.4964980544747082,-0.015,0.002,9.648190000000001,6.896657943725586,0.035,0.023,0.5,0.0,0.0,-0.0,1.0,0.0,0.0,0.0,0.0,0.0,0.0,0.0,0.0,0.0,6.8870391845703125,3.556999921798706,False,True,False,True,True,False,False
158,1.58,0.041,0.023,0.536,-0.0027675412129610777,-0.0013837706064805388,0.0027675412129610777,0.9999913573265076,0.005542743,-0.002752202,-0.005542743,0.0,-0.01,0.082,-0.053,0.004,0.011,6.892378330230713,0.04284052178263664,0.02376725524663925,0.5376213192939758,,,,,,,,0.6443579766536965,0.5749904631113145,0.6320592050049592,0.6468604562447547,101000.0,96500.0,98700.0,95800.0,6.896657943725586,0.4964980544747082,0.04783703364614328,0.01297016861219196,0.4964980544747082,-0.015,0.002,9.648190000000001,6.896657943725586,0.035,0.023,0.5,0.0,0.0,-0.0,1.0,0.0,0.0,0.0,0.0,0.0,0.0,0.0,0.0,0.0,6.8870391845703125,3.556999921798706,False,True,False,True,True,False,False
159,1.59,0.041,0.022,0.536,-0.004151311703026295,-0.0013837706064805388,0.0027675412129610777,0.9999865889549255,0.0055465465,-0.0027445299,-0.008310298,-0.001,-0.008,0.066,-0.06,0.036,0.021,6.909412860870361,0.042860642075538635,0.023670867085456848,0.5377101898193359,,,,,,,,0.6443579766536965,0.5749904631113145,0.6320592050049592,0.6468604562447547,101000.0,96500.0,98700.0,95800.0,6.906778812408447,0.8063630121309224,-0.015213244831006332,0.013595788509956512,0.8063630121309224,-0.015,0.002,9.648190000000001,6.906778812408447,0.035,0.023,0.5,0.0,0.0,-0.0,1.0,0.0,0.0,0.0,0.0,0.0,0.0,0.0,0.0,0.0,6.90712571144104,3.556999921798706,False,True,False,True,True,False,False
160,1.6,0.041,0.022,0.536,-0.004151311703026295,-0.0013837706064805388,0.0027675412129610777,0.9999865889549255,0.0055465465,-0.0027445299,-0.008310298,-0.001,-0.008,0.066,-0.06,0.036,0.021,6.909412860870361,0.042860642075538635,0.023670867085456848,0.5377101898193359,,,,,,,,0.6443579766536965,0.5749904631113145,0.6320592050049592,0.6468604562447547,101000.0,96500.0,98700.0,95800.0,6.906778812408447,0.8063630121309224,-0.015213244831006332,0.013595788509956512,0.8063630121309224,-0.015,0.002,9.648190000000001,6.906778812408447,0.035,0.023,0.5,0.0,0.0,-0.0,1.0,0.0,0.0,0.0,0.0,0.0,0.0,0.0,0.0,0.0,6.90712571144104,3.556999921798706,False,True,False,True,True,False,False
161,1.61,0.041,0.022,0.536,-0.004151311703026295,-0.0013837706064805388,0.0027675412129610777,0.9999865889549255,0.0055465465,-0.0027445299,-0.008310298,-0.001,-0.008,0.066,-0.06,0.036,0.021,6.919533729553223,0.04275120422244072,0.02349095605313778,0.5382675528526306,,,,,,,,0.6261692225528344,0.6131990539406424,0.6467078660257878,0.6108491645685512,100000.0,95500.0,99000.0,97100.0,6.9166271686553955,0.40450141145952545,-0.0032654306858930344,0.012176699473563745,0.40450141145952545,0.004,0.003,9.66619,6.9166271686553955,0.035,0.023,0.5,0.0,0.0,-0.0,1.0,0.0,0.0,0.0,0.0,0.0,0.0,0.0,0.0,0.0,6.94033408164978,3.556999921798706,False,True,False,True,True,False,False
162,1.62,0.041,0.022,0.538,-0.004151311703026295,-0.0013837706064805388,0.0027675412129610777,0.9999865889549255,0.0055465465,-0.0027445299,-0.008310298,-0.001,-0.006,0.065,0.015,0.007,0.013,6.939533948898315,0.04292314499616623,0.02353139966726303,0.5384773015975952,,,,,,,,0.6772716868848707,0.6416571297779813,0.6519417105363546,0.6448310063324941,101000.0,96200.0,98000.0,96200.0,6.936713695526123,0.39253833829251544,0.02435339894712749,0.009445334554055084,0.39253833829251544,-0.028,-0.029,9.55419,6.936713695526123,0.035,0.023,0.5,0.0,0.0,-0.0,1.0,0.0,0.0,0.0,0.0,0.0,0.0,0.0,0.0,0.0,6.946805477142334,3.552000045776367,False,True,False,True,True,False,False
163,1.6300000000000001,0.041,0.022,0.531,-0.004151311703026295,-0.0013837706064805388,0.0027675412129610777,0.9999865889549255,0.0055465465,-0.0027445299,-0.008310298,-0.001,-0.005,0.046,0.016,-0.016,-0.006,6.949468612670898,0.04277712479233742,0.02346257120370865,0.5387292504310608,,,,,,,,0.6428015564202335,0.6056000610360875,0.6487220569161517,0.6402685587853818,101000.0,96800.0,99700.0,95500.0,6.94725227355957,0.16693369954985884,0.029449912260624093,0.013611047531853208,0.16693369954985884,-0.039,-0.011,9.65319,6.94725227355957,0.035,0.023,0.5,0.0,0.0,-0.0,1.0,0.0,0.0,0.0,0.0,0.0,0.0,0.0,0.0,0.0,6.959638833999634,3.552000045776367,False,True,False,True,True,False,False
164,1.6400000000000001,0.041,0.022,0.535,-0.004151311703026295,-0.0013837706064805388,0.0027675412129610777,0.9999865889549255,0.0055465465,-0.0027445299,-0.008310298,-0.001,-0.004,0.058,-0.006,-0.008,0.007,6.960007190704346,0.042763277888298035,0.023388875648379326,0.5388375520706177,,,,,,,,0.6255893797207599,0.605477988860914,0.6482642862592508,0.6101472495613032,101000.0,95200.0,99300.0,97100.0,6.959771633148193,0.32768749523155566,0.022064545662623027,0.014373998626688029,0.32768749523155566,0.011,0.028,9.745190000000001,6.959771633148193,0.035,0.023,0.5,0.0,0.0,-0.0,1.0,0.0,0.0,0.0,0.0,0.0,0.0,0.0,0.0,0.0,6.968407392501831,3.552000045776367,False,True,False,True,True,False,False
165,1.6500000000000001,0.041,0.022,0.538,-0.004151311703026295,-0.0013837706064805388,0.0027675412129610777,0.9999865889549255,0.0055465465,-0.0027445299,-0.008310298,-0.001,-0.002,0.063,-0.031,-0.004,0.017,6.972526550292969,0.042706623673439026,0.023423006758093834,0.5390022397041321,,,,,,,,0.6255893797207599,0.605477988860914,0.6482642862592508,0.6101472495613032,101000.0,95200.0,99300.0,97100.0,6.969922065734863,0.49628442816815443,0.008422980086976424,0.011779964904249637,0.49628442816815443,0.011,0.028,9.745190000000001,6.969922065734863,0.035,0.023,0.5,0.0,0.0,-0.0,1.0,0.0,0.0,0.0,0.0,0.0,0.0,0.0,0.0,0.0,6.968407392501831,3.552000045776367,False,True,False,True,True,False,False
166,1.6600000000000001,0.041,0.022,0.538,-0.004151311703026295,-0.0013837706064805388,0.0027675412129610777,0.9999865889549255,0.0055465465,-0.0027445299,-0.008310298,-0.001,-0.002,0.063,-0.031,-0.004,0.017,6.982676982879639,0.04270266741514206,0.023408913984894753,0.5392963886260986,,,,,,,,0.6538490882734417,0.6089875638971541,0.6659342336156252,0.6529945830472267,100700.0,95800.0,100000.0,96200.0,6.989226818084717,0.3292591744869154,0.027389944304570077,0.014480811779964905,0.3292591744869154,-0.033,0.042,9.61419,6.989226818084717,0.035,0.023,0.5,0.0,0.0,-0.0,1.0,0.0,0.0,0.0,0.0,0.0,0.0,0.0,0.0,0.0,6.997190713882446,3.5409998893737793,False,True,False,True,True,False,False
167,1.67,0.041,0.022,0.538,-0.004151311703026295,-0.0013837706064805388,0.0027675412129610777,0.9999865889549255,0.0055465465,-0.0027445299,-0.008310298,-0.001,-0.002,0.063,-0.031,-0.004,0.017,6.982676982879639,0.04270266741514206,0.023408913984894753,0.5392963886260986,,,,,,,,0.6538490882734417,0.6089875638971541,0.6659342336156252,0.6529945830472267,100700.0,95800.0,100000.0,96200.0,6.989226818084717,0.3292591744869154,0.027389944304570077,0.014480811779964905,0.3292591744869154,-0.033,0.042,9.61419,6.989226818084717,0.035,0.023,0.5,0.0,0.0,-0.0,1.0,0.0,0.0,0.0,0.0,0.0,0.0,0.0,0.0,0.0,6.997190713882446,3.5409998893737793,False,True,False,True,True,False,False
168,1.68,0.041,0.022,0.535,-0.004151311703026295,-0.0013837706064805388,0.0027675412129610777,0.9999865889549255,0.0055465465,-0.0027445299,-0.008310298,-0.002,0.0,0.043,0.016,-0.002,0.019,7.001981735229492,0.04268795996904373,0.023376280441880226,0.5394513010978699,,,,,,,,0.6441748683909362,0.6161287861448081,0.6537575341420615,0.6194857709620814,101700.0,95800.0,100300.0,97100.0,6.997995376586914,0.14790569924467842,0.037201495384145876,0.012481879911497674,0.14790569924467842,-0.008,-0.001,9.841190000000001,6.997995376586914,0.035,0.023,0.5,0.0,0.0,-0.0,1.0,0.0,0.0,0.0,0.0,0.0,0.0,0.0,0.0,0.0,7.007420301437378,3.5409998893737793,False,True,False,True,True,False,False
169,1.69,0.041,0.022,0.538,-0.004151311703026295,-0.0013837706064805388,0.0027675412129610777,0.9999865889549255,0.0055465465,-0.0027445299,-0.008310298,-0.002,0.001,0.05,0.012,0.018,0.022,7.0107502937316895,0.04272295907139778,0.023365041241049767,0.5395005941390991,,,,,,,,0.6441748683909362,0.6161287861448081,0.6537575341420615,0.6194857709620814,101700.0,95800.0,100300.0,97100.0,7.006608724594116,0.9244983596551462,0.015411612115663387,0.014435034714274816,0.9244983596551462,-0.008,-0.001,9.841190000000001,7.006608724594116,0.035,0.023,0.5,0.0,0.0,-0.0,1.0,0.0,0.0,0.0,0.0,0.0,0.0,0.0,0.0,0.0,7.007420301437378,3.5409998893737793,False,True,False,True,True,False,False
170,1.7,0.041,0.022,0.538,-0.004151311703026295,-0.0013837706064805388,0.0027675412129610777,0.9999865889549255,0.0055465465,-0.0027445299,-0.008310298,-0.002,0.001,0.05,0.012,0.018,0.022,7.019363641738892,0.04261619225144386,0.02333325520157814,0.5397350192070007,,,,,,,,0.6350499732967116,0.601907377737087,0.645090409704738,0.6323338673990997,100700.0,96500.0,101400.0,96500.0,7.018774509429932,0.37093156328679333,0.020080872816052493,0.015915159838254367,0.37093156328679333,0.014,0.003,9.79819,7.018774509429932,0.035,0.023,0.5,0.0,0.0,-0.0,1.0,0.0,0.0,0.0,0.0,0.0,0.0,0.0,0.0,0.0,7.017700433731079,3.5360000133514404,False,True,False,True,True,False,False
171,1.71,0.041,0.022,0.538,-0.004151311703026295,-0.0013837706064805388,0.0027675412129610777,0.9999865889549255,0.0055465465,-0.0027445299,-0.008310298,-0.002,0.001,0.05,0.012,0.018,0.022,7.019363641738892,0.04261619225144386,0.02333325520157814,0.5397350192070007,,,,,,,,0.6350499732967116,0.601907377737087,0.645090409704738,0.6323338673990997,100700.0,96500.0,101400.0,96500.0,7.018774509429932,0.37093156328679333,0.020080872816052493,0.015915159838254367,0.37093156328679333,0.014,0.003,9.79819,7.018774509429932,0.035,0.023,0.5,0.0,0.0,-0.0,1.0,0.0,0.0,0.0,0.0,0.0,0.0,0.0,0.0,0.0,7.017700433731079,3.5360000133514404,False,True,False,True,True,False,False
