,t,x,y,z,qx,qy,qz,qw,yaw,pitch,roll,vx,vy,vz,wx,wy,wz,ros_timestamp,x_poses,y_poses,z_poses,qx_poses,qy_poses,qz_poses,qw_poses,yaw_poses,pitch_poses,roll_poses,m1_thrust,m2_thrust,m3_thrust,m4_thrust,m1_erpm,m2_erpm,m3_erpm,m4_erpm,ros_timestamp_motors,thrust,torque_roll,torque_pitch,torch_yaw,ax,ay,az,ros_timestamp_image_accel,x_setpoint,y_setpoint,z_setpoint,qx_setpoint,qy_setpoint,qz_setpoint,qw_setpoint,yaw_setpoint,pitch_setpoint,roll_setpoint,vx_setpoint,vy_setpoint,vz_setpoint,wx_setpoint,wy_setpoint,wz_setpoint,ros_timestamp_setpoint,Vbat,can_be_armed,is_armed,auto_arm,can_fly,is_flying,is_tumbled,is_locked
0,0.0,0.034,0.021,0.051,-0.0027675412129610777,0.0013837706064805388,-0.00830262340605259,0.999960720539093,-0.01661308,0.0027214803,-0.005557892,0.016,-0.005,0.015,-0.221,0.148,-0.006,52.69269323348999,0.03429859131574631,0.022256366908550262,0.05275196582078934,,,,,,,,0.7722590981918059,0.6619058518348974,0.7807125963225757,0.8966811627374686,104200.0,100700.0,101700.0,101700.0,52.69269323348999,0.41565575646601055,-0.033234149691004806,0.0037842374303807126,0.41565575646601055,0.123,-0.061,11.270190000000001,52.69269323348999,0.034,0.021,0.051,0.0,0.0,-0.00830262340605259,0.9999655485153198,-0.016605439,0.0,0.0,0.0,0.0,0.002,0.0,0.0,0.0,52.69269323348999,3.424999952316284,False,True,False,True,True,False,False
1,0.01,0.034,0.021,0.051,-0.004151311703026295,0.0027675412129610777,-0.00830262340605259,0.9999530911445618,-0.016628461,0.0054659164,-0.008348412,0.016,-0.004,0.037,-0.186,0.203,-0.004,52.70161294937134,0.034361422061920166,0.0223325714468956,0.0530814453959465,,,,,,,,0.7907225146868085,0.6813153276874953,0.7331654840924696,0.8469672693980316,106000.0,101000.0,105300.0,107500.0,52.70161294937134,0.6346074616617075,0.0729228656443122,-0.000579842832074464,0.6346074616617075,0.122,0.183,12.55719,52.70161294937134,0.034,0.021,0.051,0.0,0.0,-0.00830262340605259,0.9999655485153198,-0.016605439,0.0,0.0,0.0,0.0,0.004,0.0,0.0,0.0,52.70161294937134,3.424999952316284,False,True,False,True,True,False,False
2,0.02,0.034,0.021,0.053,-0.004151311703026295,0.0027675412129610777,-0.00830262340605259,0.9999530911445618,-0.016628461,0.0054659164,-0.008348412,0.01,-0.004,0.073,-0.036,0.131,-0.005,52.71169328689575,0.034576416015625,0.022328626364469528,0.05372238904237747,,,,,,,,0.7718471046005951,0.712489509422446,0.6963454642557412,0.7635156786449988,111500.0,104200.0,107100.0,113200.0,52.71169328689575,0.48805981536583504,0.0725108720531014,-0.00012207217517357137,0.48805981536583504,0.165,0.288,13.80419,52.71169328689575,0.034,0.021,0.051,0.0,0.0,-0.00830262340605259,0.9999655485153198,-0.016605439,0.0,0.0,0.0,0.0,0.005,0.0,0.0,0.0,52.71169328689575,3.5260000228881836,False,True,False,True,True,False,False
3,0.03,0.034,0.021,0.046,-0.004151311703026295,0.0027675412129610777,-0.00830262340605259,0.9999530911445618,-0.016628461,0.0054659164,-0.008348412,0.01,-0.003,0.098,0.109,0.002,0.006,52.72897720336914,0.03464345633983612,0.02243475429713726,0.054748598486185074,,,,,,,,0.7670557717250325,0.7749294270237278,0.7073014419775693,0.6991836423285267,112800.0,106800.0,107900.0,112800.0,52.72897720336914,0.484443427176318,0.03352407110704204,-0.003082322423132677,0.484443427176318,0.189,0.309,14.17519,52.72897720336914,0.034,0.021,0.052,0.0,0.0,-0.00830262340605259,0.9999655485153198,-0.016605439,0.0,0.0,0.0,0.0,0.008,0.0,0.0,0.0,52.72897720336914,3.5260000228881836,False,True,False,True,True,False,False
4,0.04,0.034,0.021,0.051,-0.0027675412129610777,0.004151311703026295,-0.00830262340605259,0.9999530911445618,-0.01662878,0.008256372,-0.0056039765,0.028,-0.005,0.157,0.145,0.048,0.035,52.732731103897095,0.03470970690250397,0.02248988300561905,0.05629932880401611,,,,,,,,0.7611047531853208,0.6166323338673991,0.6161440451667048,0.7376668955519952,114100.0,109100.0,107900.0,111900.0,52.732731103897095,0.3722743572137026,-0.03573662928206302,0.0002746623941405356,0.3722743572137026,0.242,0.135,14.043190000000001,52.732731103897095,0.034,0.021,0.052,0.0,0.0,-0.00830262340605259,0.9999655485153198,-0.016605439,0.0,0.0,0.0,0.0,0.01,0.0,0.0,0.0,52.732731103897095,3.5260000228881836,False,True,False,True,True,False,False
5,0.05,0.034,0.021,0.055,-0.0027675412129610777,0.004151311703026295,-0.006918853148818016,0.999963641166687,-0.013861098,0.00826412,-0.005592546,0.029,-0.004,0.209,-0.003,-0.011,0.022,52.75110745429993,0.03495083004236221,0.022402843460440636,0.058471985161304474,,,,,,,,0.6164492256046388,0.5996032654306859,0.6661020828564889,0.6662241550316624,114900.0,107100.0,106000.0,111500.0,52.75110745429993,0.0844739452201114,0.07896543831540398,0.003997863736934462,0.0844739452201114,0.253,-0.046,14.155190000000001,52.75110745429993,0.034,0.021,0.052,0.0,0.0,-0.00830262340605259,0.9999655485153198,-0.016605439,0.0,0.0,0.0,0.0,0.014,0.0,0.0,0.0,52.75110745429993,3.5260000228881836,False,True,False,True,True,False,False
6,0.06,0.034,0.021,0.059,-0.0027675412129610777,0.005535082425922155,-0.006918853148818016,0.9999569058418274,-0.013869035,0.011031616,-0.005611808,0.049,-0.011,0.256,-0.124,-0.215,-0.02,52.75470042228699,0.03487987816333771,0.02271060273051262,0.06049647182226181,,,,,,,,0.5634851606012055,0.5725795376516365,0.6263218127718013,0.6274814984359502,110300.0,106400.0,106000.0,110300.0,52.75470042228699,0.45427634088654917,0.03698786907759213,0.005081254291599909,0.45427634088654917,0.263,-0.005,13.870190000000001,52.75470042228699,0.034,0.021,0.052,0.0,0.0,-0.00830262340605259,0.9999655485153198,-0.016605439,0.0,0.0,0.0,0.0,0.017,0.0,0.0,0.0,52.75470042228699,3.6579999923706055,False,True,False,True,True,False,False
7,0.07,0.034,0.021,0.062,-0.004151311703026295,0.004151311703026295,-0.00830262340605259,0.9999483227729797,-0.016640186,0.0082333535,-0.00837151,0.052,-0.006,0.295,-0.176,-0.176,-0.02,52.76169967651367,0.03496900945901871,0.02276032045483589,0.06357015669345856,,,,,,,,0.558083466849775,0.5055313954375524,0.5648889906157015,0.6378271152819104,106400.0,103800.0,104900.0,108300.0,52.76169967651367,0.474540321965362,-0.016769665064469367,-0.0014648661020828565,0.474540321965362,0.273,0.101,12.96319,52.76169967651367,0.034,0.021,0.052,0.0,0.0,-0.00830262340605259,0.9999655485153198,-0.016605439,0.0,0.0,0.0,0.0,0.021,0.0,0.0,0.0,52.76169967651367,3.6579999923706055,False,True,False,True,True,False,False
8,0.08,0.035,0.021,0.061,-0.004151311703026295,0.004151311703026295,-0.00830262340605259,0.9999483227729797,-0.016640186,0.0082333535,-0.00837151,0.065,-0.01,0.302,-0.109,-0.204,0.007,52.772151708602905,0.035041239112615585,0.023023758083581924,0.066440150141716,,,,,,,,0.594369420920119,0.5492027161058977,0.5521934843976501,0.5957732509346151,103800.0,99300.0,103100.0,106800.0,52.772151708602905,0.37380025940337225,0.08065918974593729,-0.004638742656595712,0.37380025940337225,0.244,0.142,12.136190000000001,52.772151708602905,0.034,0.021,0.052,0.0,0.0,-0.00830262340605259,0.9999655485153198,-0.016605439,0.0,0.0,0.0,0.0,0.026,0.0,0.0,0.0,52.772151708602905,3.6579999923706055,False,True,False,True,True,False,False
9,0.09,0.035,0.022,0.07,-0.004151311703026295,0.0013837706064805388,-0.006918853148818016,0.9999665021896362,-0.013849225,0.0027100071,-0.00832162,0.056,-0.011,0.351,0.072,-0.332,0.019,52.79197645187378,0.03531020134687424,0.023298215121030807,0.07302896678447723,,,,,,,,0.5489585717555505,0.5363546196688792,0.5179522392614634,0.5098039215686274,99700.0,98000.0,98000.0,100000.0,52.79197645187378,0.6546272983901732,-0.004745555809872587,0.0030670634012359807,0.6546272983901732,0.045,0.064,11.09919,52.79197645187378,0.034,0.021,0.053,0.0,0.0,-0.00830262340605259,0.9999655485153198,-0.016605439,0.0,0.0,0.0,0.0,0.037,0.0,0.0,0.001,52.79197645187378,3.6679999828338623,False,True,False,True,True,False,False
10,0.1,0.035,0.022,0.07,-0.004151311703026295,0.0013837706064805388,-0.006918853148818016,0.9999665021896362,-0.013849225,0.0027100071,-0.00832162,0.056,-0.011,0.351,0.072,-0.332,0.019,52.79197645187378,0.03531020134687424,0.023298215121030807,0.07302896678447723,,,,,,,,0.5489585717555505,0.5363546196688792,0.5179522392614634,0.5098039215686274,99700.0,98000.0,98000.0,100000.0,52.79197645187378,0.6546272983901732,-0.004745555809872587,0.0030670634012359807,0.6546272983901732,0.045,0.064,11.09919,52.79197645187378,0.034,0.021,0.053,0.0,0.0,-0.00830262340605259,0.9999655485153198,-0.016605439,0.0,0.0,0.0,0.0,0.037,0.0,0.0,0.001,52.79197645187378,3.6679999828338623,False,True,False,True,True,False,False
11,0.11,0.036,0.022,0.075,-0.0027675412129610777,-0.0,-0.006918853148818016,0.9999722242355347,-0.013837763,-3.829642e-05,-0.005534957,0.062,-0.01,0.366,0.124,-0.373,0.0,52.801998138427734,0.03546324372291565,0.023512540385127068,0.07628127932548523,,,,,,,,0.5256275272755017,0.542900740062562,0.5106736858167391,0.48003356984817275,98000.0,96800.0,95500.0,96200.0,52.801998138427734,0.32640573739223316,0.0067750057221332115,0.006408789196612497,0.32640573739223316,0.033,0.008,10.48919,52.801998138427734,0.034,0.021,0.053,0.0,0.0,-0.00830262340605259,0.9999655485153198,-0.016605439,0.0,0.0,0.0,0.0,0.043,0.0,0.0,0.001,52.801998138427734,3.6679999828338623,False,True,False,True,True,False,False
12,0.12,0.037,0.022,0.07,-0.0027675412129610777,-0.0013837706064805388,-0.006918853148818016,0.9999712705612183,-0.013830145,-0.0028057622,-0.0055158255,0.077,-0.014,0.337,0.087,-0.38,-0.004,52.81198477745056,0.035714201629161835,0.023495621979236603,0.0800575390458107,,,,,,,,0.5679407949950408,0.5625391012436103,0.5572594796673533,0.5606469825284199,96200.0,94900.0,92900.0,92600.0,52.81198477745056,0.4639658197909514,-0.005050736247806516,0.0030518043793392844,0.4639658197909514,0.043,-0.014,9.857190000000001,52.81198477745056,0.034,0.021,0.054,0.0,0.0,-0.006918853148818016,0.9999760389328003,-0.013837816,0.0,0.0,0.0,0.0,0.05,0.0,0.0,0.001,52.81198477745056,3.6679999828338623,False,True,False,True,True,False,False
13,0.13,0.036,0.022,0.08,-0.0013837706064805388,-0.0027675412129610777,-0.006918853148818016,0.9999712705612183,-0.013830303,-0.0055541005,-0.0027292108,0.075,-0.025,0.362,-0.037,-0.349,-0.001,52.82150149345398,0.03574360907077789,0.02383168414235115,0.083188496530056,,,,,,,,0.5300068665598535,0.5112077515831235,0.5318989852750439,0.5425803006027313,96200.0,94300.0,92600.0,93500.0,52.82150149345398,0.09915312428473334,0.014343480582894636,0.000579842832074464,0.09915312428473334,-0.01,-0.07,9.52919,52.82150149345398,0.034,0.021,0.054,0.0,0.0,-0.006918853148818016,0.9999760389328003,-0.013837816,0.0,0.0,0.0,0.0,0.058,0.0,0.0,0.001,52.82150149345398,3.6679999828338623,False,True,False,True,True,False,False
14,0.14,0.036,0.022,0.085,-0.0027675412129610777,-0.0027675412129610777,-0.006918853148818016,0.999968409538269,-0.013822606,-0.005573233,-0.0054967245,0.094,-0.013,0.363,-0.142,-0.39,-0.001,52.83186149597168,0.03570185974240303,0.023984268307685852,0.08677344024181366,,,,,,,,0.5103990234225986,0.4724650949874113,0.5443350881208514,0.5818417639429313,93500.0,92900.0,92300.0,92600.0,52.83186149597168,0.47479972533760584,0.043305104142824444,0.0006256198977645533,0.47479972533760584,-0.061,-0.043,9.296190000000001,52.83186149597168,0.034,0.021,0.055,0.0,0.0,-0.006918853148818016,0.9999760389328003,-0.013837816,0.0,0.0,0.0,0.0,0.065,0.0,0.0,0.002,52.83186149597168,3.6579999923706055,False,True,False,True,True,False,False
15,0.15,0.036,0.022,0.087,-0.004151311703026295,-0.006918853148818016,-0.006918853148818016,0.9999434947967529,-0.013781246,-0.013894816,-0.008207298,0.079,-0.004,0.348,-0.167,-0.462,0.011,52.841976165771484,0.035761866718530655,0.024159420281648636,0.09028936922550201,,,,,,,,0.4834821087968261,0.5504081788357367,0.6155642023346304,0.5388723582818341,92600.0,89600.0,91700.0,92000.0,52.841976165771484,0.4640726329442283,0.04063477531090257,-0.0005951018539711605,0.4640726329442283,-0.083,0.027,9.039190000000001,52.841976165771484,0.034,0.021,0.056,0.0,0.0,-0.006918853148818016,0.9999760389328003,-0.013837816,0.0,0.0,0.0,0.0,0.074,0.0,0.0,0.002,52.841976165771484,3.6579999923706055,False,True,False,True,True,False,False
16,0.16,0.036,0.023,0.092,-0.005535082425922155,-0.00830262340605259,-0.006918853148818016,0.9999262690544128,-0.013747119,-0.016681388,-0.010956204,0.077,-0.003,0.344,-0.172,-0.498,0.007,52.851903438568115,0.035850729793310165,0.024468589574098587,0.09343192726373672,,,,,,,,0.4814373998626688,0.5588311589227131,0.6250553139543755,0.5396047913328755,89800.0,90600.0,92300.0,90600.0,52.851903438568115,0.9542381933318075,-0.014358739604791332,0.0024414435034714275,0.9542381933318075,-0.147,0.024,8.93019,52.851903438568115,0.034,0.021,0.056,0.0,0.0,-0.006918853148818016,0.9999760389328003,-0.013837816,0.0,0.0,0.0,0.0,0.083,0.0,0.0,0.002,52.851903438568115,3.6579999923706055,False,True,False,True,True,False,False
17,0.17,0.036,0.023,0.092,-0.005535082425922155,-0.012453935109078884,-0.006918853148818016,0.9998831748962402,-0.013702928,-0.024984151,-0.010900155,0.057,-0.008,0.32,-0.105,-0.439,-0.017,52.86160755157471,0.035778775811195374,0.024654129520058632,0.09677492082118988,,,,,,,,0.5404287785152971,0.6090333409628442,0.6322270542458228,0.5561760891126879,89600.0,90600.0,96800.0,91500.0,52.86160755157471,0.3778286411841001,-0.04443427176317998,0.0020294499122606243,0.3778286411841001,-0.212,0.051,8.76519,52.86160755157471,0.034,0.021,0.057,0.0,0.0,-0.006918853148818016,0.9999760389328003,-0.013837816,0.0,0.0,0.0,0.0,0.092,0.0,0.0,0.003,52.86160755157471,3.6579999923706055,False,True,False,True,True,False,False
18,0.18,0.036,0.023,0.097,-0.005535082425922155,-0.015221476554870605,-0.005535082425922155,0.9998534917831421,-0.010905328,-0.030504495,-0.010905328,0.053,-0.018,0.318,0.055,-0.287,-0.013,52.87239718437195,0.035852402448654175,0.024966852739453316,0.09969940781593323,,,,,,,,0.6050965133134966,0.6414129854276341,0.5719233997100786,0.5303578240634775,88800.0,93500.0,95200.0,91500.0,52.87239718437195,0.1142748149843595,-0.07306019684138247,0.00332646677347982,0.1142748149843595,-0.311,0.131,8.95419,52.87239718437195,0.034,0.021,0.058,0.0,0.0,-0.006918853148818016,0.9999760389328003,-0.013837816,0.0,0.0,0.0,0.0,0.102,0.0,0.0,0.003,52.87239718437195,3.621000051498413,False,True,False,True,True,False,False
19,0.19,0.036,0.023,0.1,-0.004151311703026295,-0.01660524681210518,-0.006918853148818016,0.9998295903205872,-0.013705493,-0.033268414,-0.008075986,0.051,-0.015,0.31,0.121,-0.094,0.005,52.88487124443054,0.03592921048402786,0.02531053125858307,0.10249151289463043,,,,,,,,0.6448767833981842,0.5983367666132601,0.5656824597543297,0.5943389028763256,91700.0,95200.0,95200.0,90100.0,52.88487124443054,0.8036316472114138,-0.009796292057679103,-0.00016784924086366064,0.8036316472114138,-0.346,0.056,9.078190000000001,52.88487124443054,0.034,0.021,0.059,0.0,0.0,-0.006918853148818016,0.9999760389328003,-0.013837816,0.0,0.0,0.0,0.0,0.113,0.0,0.0,0.003,52.88487124443054,3.621000051498413,False,True,False,True,True,False,False
20,0.2,0.035,0.024,0.103,-0.004151311703026295,-0.01660524681210518,-0.005535082425922155,0.9998381733894348,-0.0109367715,-0.0332572,-0.008122037,0.042,-0.009,0.302,0.044,0.012,0.012,52.895143032073975,0.03596246987581253,0.02557389996945858,0.1054818406701088,,,,,,,,0.5912718394750897,0.5962462806134127,0.6467841611352713,0.6189822232394904,94900.0,95800.0,94300.0,91200.0,52.895143032073975,0.312642099641413,0.008880750743877317,0.0034943160143434807,0.312642099641413,-0.356,-0.008,9.18319,52.895143032073975,0.034,0.021,0.06,0.0,0.0,-0.006918853148818016,0.9999760389328003,-0.013837816,0.0,0.0,0.0,0.0,0.123,0.0,0.0,0.004,52.895143032073975,3.621000051498413,False,True,False,True,True,False,False
21,0.21,0.035,0.024,0.103,-0.004151311703026295,-0.01660524681210518,-0.005535082425922155,0.9998381733894348,-0.0109367715,-0.0332572,-0.008122037,0.037,-0.016,0.283,-0.075,0.069,-0.034,52.90166616439819,0.03597821295261383,0.025873664766550064,0.10824839025735855,,,,,,,,0.6251621271076524,0.6216220340276188,0.662729839017319,0.6760357061112383,95200.0,94600.0,96200.0,94000.0,52.90166616439819,0.809552147707332,0.03598077363241016,0.003295948729686427,0.809552147707332,-0.307,-0.067,9.325190000000001,52.90166616439819,0.034,0.021,0.062,0.0,0.0,-0.006918853148818016,0.9999760389328003,-0.013837816,0.0,0.0,0.0,0.0,0.135,0.0,0.0,0.004,52.90166616439819,3.621000051498413,False,True,False,True,True,False,False
22,0.22,0.035,0.024,0.106,-0.004151311703026295,-0.01660524681210518,-0.005535082425922155,0.9998381733894348,-0.0109367715,-0.0332572,-0.008122037,0.022,-0.008,0.278,-0.084,0.013,-0.017,52.911864042282104,0.03597821295261383,0.025873664766550064,0.10824839025735855,,,,,,,,0.6195773250934615,0.6501564049744412,0.6991378652628366,0.6648966201266499,95200.0,96200.0,99300.0,96200.0,52.911864042282104,0.014785992217898832,0.0311284046692607,-0.0015869382772564279,0.014785992217898832,-0.289,0.003,9.47119,52.911864042282104,0.034,0.021,0.063,0.0,0.0,-0.006918853148818016,0.9999760389328003,-0.013837816,0.0,0.0,0.0,0.0,0.146,0.0,0.0,0.005,52.911864042282104,3.5840001106262207,False,True,False,True,True,False,False
23,0.23,0.035,0.024,0.11,-0.004151311703026295,-0.01660524681210518,-0.005535082425922155,0.9998381733894348,-0.0109367715,-0.0332572,-0.008122037,0.034,-0.013,0.282,-0.006,0.103,-0.017,52.921926498413086,0.03580529987812042,0.026000728830695152,0.11140921711921692,,,,,,,,0.6894026092927443,0.6461890592813001,0.6376134889753566,0.6794232089723049,96800.0,99000.0,100000.0,96800.0,52.921926498413086,0.4790722514686809,-0.05189593347066453,0.002670328831921874,0.4790722514686809,-0.313,0.059,9.82019,52.921926498413086,0.034,0.021,0.065,0.0,0.0,-0.006918853148818016,0.9999760389328003,-0.013837816,0.0,0.0,0.0,0.0,0.159,0.0,0.0,0.005,52.921926498413086,3.5840001106262207,False,True,False,True,True,False,False
24,0.24,0.035,0.025,0.113,-0.004151311703026295,-0.015221476554870605,-0.005535082425922155,0.9998602271080017,-0.010947546,-0.030489376,-0.00813683,0.031,-0.017,0.286,0.053,0.241,-0.008,52.93174886703491,0.03579191118478775,0.026448780670762062,0.11414166539907455,,,,,,,,0.7229877164873731,0.6291752498664835,0.6175478751812009,0.7014724956130312,100000.0,98000.0,101000.0,99000.0,52.93174886703491,0.8160219729915312,0.047226672770275424,0.0003356984817273213,0.8160219729915312,-0.36,0.067,10.10119,52.93174886703491,0.034,0.021,0.066,0.0,0.0,-0.006918853148818016,0.9999760389328003,-0.013837816,0.0,0.0,0.0,0.0,0.171,0.0,0.0,0.005,52.93174886703491,3.5840001106262207,False,True,False,True,True,False,False
25,0.25,0.035,0.025,0.116,-0.005535082425922155,-0.013837706297636032,-0.005535082425922155,0.9998736381530762,-0.0109199975,-0.027736746,-0.0109199975,0.024,-0.004,0.292,0.02,0.275,0.0,52.94491267204285,0.0357210747897625,0.026634076610207558,0.11695684492588043,,,,,,,,0.6760967421988251,0.6345006485084306,0.6766155489433128,0.7032578011749447,102400.0,99000.0,100700.0,100000.0,52.94491267204285,0.9029983978027009,0.09279011215381094,0.006149385824368658,0.9029983978027009,-0.28,0.023,10.41319,52.94491267204285,0.034,0.021,0.068,0.0,0.0,-0.006918853148818016,0.9999760389328003,-0.013837816,0.0,0.0,0.0,0.0,0.184,0.0,0.0,0.006,52.94491267204285,3.5840001106262207,False,True,False,True,True,False,False
26,0.26,0.035,0.025,0.115,-0.004151311703026295,-0.013837706297636032,-0.005535082425922155,0.999880313873291,-0.01095838,-0.027721606,-0.008151666,0.01,-0.015,0.281,0.017,0.146,-0.023,52.951725244522095,0.03547303378582001,0.02729310840368271,0.1227639764547348,,,,,,,,0.6911421377889677,0.7148241397726406,0.7117418173495079,0.684946974898909,104500.0,101000.0,101400.0,102000.0,52.951725244522095,0.41770046540016786,0.08130006866559854,0.0016174563210498208,0.41770046540016786,-0.187,-0.009,10.56419,52.951725244522095,0.034,0.021,0.07,0.0,0.0,-0.006918853148818016,0.9999760389328003,-0.013837816,0.0,0.0,0.0,0.0,0.197,0.0,0.0,0.006,52.951725244522095,3.556999921798706,False,True,False,True,True,False,False
27,0.27,0.035,0.026,0.125,-0.004151311703026295,-0.012453935109078884,-0.005535082425922155,0.9998984932899475,-0.010969276,-0.024953889,-0.008166547,0.017,-0.016,0.32,0.064,0.186,-0.016,52.97182035446167,0.035072557628154755,0.028029102832078934,0.12903182208538055,,,,,,,,0.7387502861066606,0.6468299382009614,0.6211032272831312,0.7152208743419547,105300.0,105300.0,106000.0,105300.0,52.97182035446167,0.3270008392462043,-0.02264438849469749,-0.0029144731822690166,0.3270008392462043,-0.329,-0.011,11.24619,52.97182035446167,0.034,0.021,0.074,0.0,0.0,-0.006918853148818016,0.9999760389328003,-0.013837816,0.0,0.0,0.0,0.0,0.224,0.0,0.0,0.007,52.97182035446167,3.556999921798706,False,True,False,True,True,False,False
28,0.28,0.035,0.026,0.125,-0.004151311703026295,-0.012453935109078884,-0.005535082425922155,0.9998984932899475,-0.010969276,-0.024953889,-0.008166547,0.017,-0.016,0.32,0.064,0.186,-0.016,52.97182035446167,0.035072557628154755,0.028029102832078934,0.12903182208538055,,,,,,,,0.7387502861066606,0.6468299382009614,0.6211032272831312,0.7152208743419547,105300.0,105300.0,106000.0,105300.0,52.97182035446167,0.3270008392462043,-0.02264438849469749,-0.0029144731822690166,0.3270008392462043,-0.329,-0.011,11.24619,52.97182035446167,0.034,0.021,0.074,0.0,0.0,-0.006918853148818016,0.9999760389328003,-0.013837816,0.0,0.0,0.0,0.0,0.224,0.0,0.0,0.007,52.97182035446167,3.556999921798706,False,True,False,True,True,False,False
29,0.29,0.035,0.027,0.13,-0.0027675412129610777,-0.01107016485184431,-0.005535082425922155,0.999919593334198,-0.011010928,-0.022171002,-0.0054134456,0.011,-0.012,0.342,0.083,0.286,0.001,52.98204231262207,0.03499116748571396,0.028427237644791603,0.1322433054447174,,,,,,,,0.7112993057145037,0.6373235675593194,0.6373235675593194,0.694392309452964,106800.0,106000.0,104200.0,105300.0,52.98204231262207,0.13414206149385824,0.06942854962996872,0.0004730296787975891,0.13414206149385824,-0.301,-0.006,11.39319,52.98204231262207,0.034,0.021,0.076,0.0,0.0,-0.006918853148818016,0.9999760389328003,-0.013837816,0.0,0.0,0.0,0.0,0.239,0.0,0.0,0.008,52.98204231262207,3.556999921798706,False,True,False,True,True,False,False
30,0.3,0.035,0.027,0.123,-0.004151311703026295,-0.01107016485184431,-0.005535082425922155,0.9999147653579712,-0.010980233,-0.022186218,-0.008181471,0.018,-0.009,0.313,0.009,0.177,-0.015,52.99187254905701,0.03486703708767891,0.02884828858077526,0.13581401109695435,,,,,,,,0.6951400015259022,0.7261463340199893,0.7644464789806973,0.7339894712748912,108300.0,104900.0,103100.0,106000.0,52.99187254905701,0.9337758449683375,0.08258182650492103,0.004150453955901427,0.9337758449683375,-0.166,0.016,11.26319,52.99187254905701,0.034,0.021,0.079,0.0,0.0,-0.006918853148818016,0.9999760389328003,-0.013837816,0.0,0.0,0.0,0.0,0.252,0.0,0.0,0.008,52.99187254905701,3.572999954223633,False,True,False,True,True,False,False
31,0.31,0.034,0.027,0.132,-0.004151311703026295,-0.009686394594609737,-0.005535082425922155,0.9999291300773621,-0.010991251,-0.019418592,-0.008196442,0.002,0.002,0.352,-0.024,0.075,-0.025,53.00153827667236,0.034635670483112335,0.029372159391641617,0.13929572701454163,,,,,,,,0.6442511635004197,0.6979018844892042,0.7458762493324178,0.6952162966353856,106000.0,105600.0,106400.0,106400.0,53.00153827667236,0.09587243457694362,0.029495689326314183,-6.103608758678569e-05,0.09587243457694362,-0.131,0.022,11.277190000000001,53.00153827667236,0.034,0.021,0.081,0.0,0.0,-0.006918853148818016,0.9999760389328003,-0.013837816,0.0,0.0,0.0,0.0,0.267,0.0,0.0,0.009,53.00153827667236,3.572999954223633,False,True,False,True,True,False,False
32,0.32,0.034,0.028,0.137,-0.0027675412129610777,-0.009686394594609737,-0.005535082425922155,0.9999339580535889,-0.011018115,-0.019403365,-0.005428535,-0.002,-0.012,0.373,0.041,0.069,0.012,53.011950969696045,0.034180331975221634,0.02974729798734188,0.1430225819349289,,,,,,,,0.6989547570000763,0.6907454032196536,0.679819943541619,0.6729533836881056,106000.0,106000.0,106400.0,105300.0,53.011950969696045,0.05420004577706569,-0.025238422217135882,3.0518043793392844e-05,0.05420004577706569,-0.181,0.02,11.392190000000001,53.011950969696045,0.034,0.021,0.084,0.0,0.0,-0.006918853148818016,0.9999760389328003,-0.013837816,0.0,0.0,0.0,0.0,0.281,0.0,0.0,0.009,53.011950969696045,3.572999954223633,False,True,False,True,True,False,False
33,0.33,0.034,0.028,0.141,-0.0027675412129610777,-0.009686394594609737,-0.005535082425922155,0.9999339580535889,-0.011018115,-0.019403365,-0.005428535,-0.001,-0.007,0.388,0.079,0.194,0.002,53.02168607711792,0.034180331975221634,0.02974729798734188,0.1430225819349289,,,,,,,,0.7094377050431068,0.657251850156405,0.6621347371633478,0.7054703593499657,105300.0,105300.0,106000.0,104500.0,53.02168607711792,0.6302891584649424,-0.016113527122911423,0.002273594262607767,0.6302891584649424,-0.198,0.027,11.36919,53.02168607711792,0.034,0.021,0.087,0.0,0.0,-0.006918853148818016,0.9999760389328003,-0.013837816,0.0,0.0,0.0,0.0,0.296,0.0,0.0,0.01,53.02168607711792,3.572999954223633,False,True,False,True,True,False,False
34,0.34,0.033,0.028,0.144,-0.0027675412129610777,-0.00830262340605259,-0.005535082425922155,0.9999463558197021,-0.011025364,-0.01663576,-0.005443654,-0.009,-0.005,0.397,0.03,0.258,0.014,53.03191328048706,0.033556096255779266,0.030505141243338585,0.15111525356769562,,,,,,,,0.6997634851606012,0.6541695277332723,0.6873731593804837,0.7150835431448844,106800.0,106000.0,105600.0,105600.0,53.03191328048706,0.8404974441138323,0.04866102082856489,0.004547188525215534,0.8404974441138323,-0.235,0.001,11.21319,53.03191328048706,0.034,0.021,0.09,0.0,0.0,-0.006918853148818016,0.9999760389328003,-0.013837816,0.0,0.0,0.0,0.0,0.311,0.0,0.0,0.01,53.03191328048706,3.5889999866485596,False,True,False,True,True,False,False
35,0.35000000000000003,0.033,0.029,0.148,-0.0027675412129610777,-0.00830262340605259,-0.005535082425922155,0.9999463558197021,-0.011025364,-0.01663576,-0.005443654,-0.012,-0.011,0.415,-0.017,0.272,-0.009,53.041528940200806,0.03323151916265488,0.03097478300333023,0.15532289445400238,,,,,,,,0.693492027161059,0.6360570687418936,0.6745098039215687,0.7278553444724193,106800.0,104500.0,105300.0,105300.0,53.041528940200806,0.4280918593118181,0.047348744945448995,0.0017242694743266956,0.4280918593118181,-0.173,-0.026,11.129190000000001,53.041528940200806,0.034,0.021,0.093,0.0,0.0,-0.006918853148818016,0.9999760389328003,-0.013837816,0.0,0.0,0.0,0.0,0.326,0.0,0.0,0.011,53.041528940200806,3.5889999866485596,False,True,False,True,True,False,False
36,0.36,0.033,0.029,0.153,-0.0027675412129610777,-0.006918853148818016,-0.005535082425922155,0.9999569058418274,-0.011032676,-0.013868191,-0.005458803,-0.013,-0.009,0.428,0.001,0.313,-0.01,53.05546760559082,0.0329861156642437,0.031293466687202454,0.15978826582431793,,,,,,,,0.7162432288090333,0.6411993591210804,0.6473029678797589,0.7205767910276951,106000.0,103100.0,105300.0,106400.0,53.05546760559082,0.5700007629510948,0.010589761196307317,0.004852368963149462,0.5700007629510948,-0.12,-0.026,11.07019,53.05546760559082,0.034,0.021,0.096,0.0,0.0,-0.006918853148818016,0.9999760389328003,-0.013837816,0.0,0.0,0.0,0.0,0.34,0.0,0.0,0.011,53.05546760559082,3.5889999866485596,False,True,False,True,True,False,False
37,0.37,0.032,0.03,0.158,-0.004151311703026295,-0.005535082425922155,-0.005535082425922155,0.999960720539093,-0.011024678,-0.011115915,-0.0082416255,-0.017,0.011,0.447,0.084,0.245,-0.013,53.06270503997803,0.03254547342658043,0.03182641416788101,0.16414305567741394,,,,,,,,0.6733196002136264,0.6571755550469215,0.6690775921263447,0.6918135347524224,104900.0,102000.0,104900.0,106400.0,53.06270503997803,0.36879530022125584,0.07264820325017167,0.0006713969634546426,0.36879530022125584,-0.046,0.021,10.96019,53.06270503997803,0.034,0.021,0.1,0.0,0.0,-0.006918853148818016,0.9999760389328003,-0.013837816,0.0,0.0,0.0,0.0,0.355,0.0,0.0,0.012,53.06270503997803,3.5889999866485596,False,True,False,True,True,False,False
38,0.38,0.032,0.03,0.163,-0.0027675412129610777,-0.004151311703026295,-0.005535082425922155,0.9999722242355347,-0.011047488,-0.008333125,-0.005489191,-0.017,0.011,0.459,0.149,0.206,0.016,53.073487520217896,0.03254547342658043,0.03182641416788101,0.16414305567741394,,,,,,,,0.6809338521400778,0.6781567101548791,0.6698558022430762,0.6576791027695125,105300.0,103400.0,104500.0,106000.0,53.073487520217896,0.947524223697261,0.010971236743724726,-0.0006256198977645533,0.947524223697261,-0.013,0.046,10.83819,53.073487520217896,0.034,0.021,0.103,0.0,0.0,-0.006918853148818016,0.9999760389328003,-0.013837816,0.0,0.0,0.0,0.0,0.37,0.0,0.0,0.012,53.073487520217896,3.5940001010894775,False,True,False,True,True,False,False
39,0.39,0.031,0.03,0.16,-0.0027675412129610777,-0.0027675412129610777,-0.005535082425922155,0.9999769926071167,-0.011054989,-0.0055656214,-0.005504431,-0.017,0.012,0.433,0.188,0.164,-0.01,53.08157134056091,0.031991057097911835,0.03285243362188339,0.1733008772134781,,,,,,,,0.7249256122682536,0.7246204318303197,0.713847562371252,0.7204394598306249,105300.0,104200.0,105300.0,104200.0,53.08157134056091,0.8503547722590982,0.014343480582894636,0.0016327153429465172,0.8503547722590982,0.002,0.002,10.71519,53.08157134056091,0.034,0.021,0.107,0.0,0.0,-0.006918853148818016,0.9999760389328003,-0.013837816,0.0,0.0,0.0,0.0,0.385,0.0,0.0,0.013,53.08157134056091,3.5940001010894775,False,True,False,True,True,False,False
40,0.4,0.031,0.031,0.17,-0.0027675412129610777,-0.0013837706064805388,-0.005535082425922155,0.9999799132347107,-0.011062552,-0.0027981265,-0.005519702,-0.017,0.034,0.469,0.143,0.161,-0.012,53.09198784828186,0.03159889578819275,0.033384770154953,0.177870973944664,,,,,,,,0.6760357061112383,0.6583352407110704,0.6918135347524224,0.7137254901960784,106000.0,103800.0,105300.0,105600.0,53.09198784828186,0.20312809948882277,0.017181658655680172,0.0037689784084840162,0.20312809948882277,0.002,0.0,10.85219,53.09198784828186,0.034,0.021,0.111,0.0,0.0,-0.006918853148818016,0.9999760389328003,-0.013837816,0.0,0.0,0.0,0.0,0.399,0.0,0.0,0.013,53.09198784828186,3.5940001010894775,False,True,False,True,True,False,False
41,0.41000000000000003,0.031,0.032,0.176,-0.0013837706064805388,-0.0013837706064805388,-0.005535082425922155,0.9999827742576599,-0.011066413,-0.0027828156,-0.002752189,-0.019,0.03,0.482,0.148,0.176,-0.005,53.102033615112305,0.03122740425169468,0.03390451893210411,0.18272322416305542,,,,,,,,0.6862287327382315,0.6484779125658046,0.6723735408560312,0.7195239185168231,105300.0,104900.0,106000.0,106000.0,53.102033615112305,0.2747997253376059,-0.012161440451667048,-0.0007476920729381247,0.2747997253376059,-0.014,-0.003,11.05019,53.102033615112305,0.034,0.021,0.115,0.0,0.0,-0.006918853148818016,0.9999760389328003,-0.013837816,0.0,0.0,0.0,0.0,0.414,0.0,0.0,0.014,53.102033615112305,3.5940001010894775,False,True,False,True,True,False,False
42,0.42,0.031,0.033,0.181,-0.0013837706064805388,0.0,-0.005535082425922155,0.9999837279319763,-0.011070211,-1.5318568e-05,-0.0027674998,-0.014,0.037,0.496,0.211,0.211,-0.008,53.11498713493347,0.030940739437937737,0.034382887184619904,0.18768134713172913,,,,,,,,0.6936446173800259,0.665842679484245,0.6561379415579461,0.6927901121538109,104500.0,103800.0,106400.0,106800.0,53.11498713493347,0.13279926756694896,0.020630197604333562,-0.0017090104524299992,0.13279926756694896,0.02,-0.007,10.93819,53.11498713493347,0.034,0.021,0.119,0.0,0.0,-0.006918853148818016,0.9999760389328003,-0.013837816,0.0,0.0,0.0,0.0,0.427,0.0,0.0,0.014,53.11498713493347,3.5940001010894775,False,True,False,True,True,False,False
43,0.43,0.03,0.033,0.186,-0.0013837706064805388,0.0013837706064805388,-0.005535082425922155,0.9999827742576599,-0.011074072,0.0027521783,-0.0027828263,-0.017,0.047,0.508,0.266,0.184,0.009,53.12165403366089,0.030540205538272858,0.03475082665681839,0.19293497502803802,,,,,,,,0.6693217364766918,0.6700541695277332,0.6794842450598917,0.6793621728847181,106000.0,103400.0,104500.0,106400.0,53.12165403366089,0.23378347447928588,0.028412298771648737,-0.0016479743648432135,0.23378347447928588,0.068,-0.016,10.80019,53.12165403366089,0.034,0.021,0.124,0.0,0.0,-0.006918853148818016,0.9999760389328003,-0.013837816,0.0,0.0,0.0,0.0,0.442,0.0,0.0,0.015,53.12165403366089,3.5940001010894775,False,True,False,True,True,False,False
44,0.44,0.03,0.034,0.185,-0.0,0.0013837706064805388,-0.005535082425922155,0.9999837279319763,-0.011070253,0.0027674998,-1.5318627e-05,-0.016,0.054,0.503,0.293,0.158,0.008,53.13184881210327,0.030540205538272858,0.03475082665681839,0.19293497502803802,,,,,,,,0.7135576409552148,0.6849011978332189,0.693690394445716,0.7175860227359426,105600.0,103800.0,104900.0,105600.0,53.13184881210327,0.3722438391699092,0.014358739604791332,-0.0016021972991531242,0.3722438391699092,0.139,-0.083,10.69219,53.13184881210327,0.034,0.021,0.128,0.0,0.0,-0.006918853148818016,0.9999760389328003,-0.013837816,0.0,0.0,0.0,0.0,0.455,0.0,0.0,0.015,53.13184881210327,3.5940001010894775,False,True,False,True,True,False,False
45,0.45,0.029,0.034,0.193,0.0,0.0027675412129610777,-0.005535082425922155,0.9999808669090271,-0.011070349,0.0055350047,-3.0637606e-05,-0.022,0.066,0.527,0.301,0.089,0.0,53.141403675079346,0.029908858239650726,0.03563690558075905,0.20336005091667175,,,,,,,,0.667353322652018,0.6639047837033646,0.6934767681391623,0.7021133745326924,106400.0,105300.0,104900.0,105300.0,53.141403675079346,0.7541161211566338,0.02230869001297017,0.002746623941405356,0.7541161211566338,0.15,-0.096,10.770190000000001,53.141403675079346,0.034,0.021,0.133,0.0,0.0,-0.006918853148818016,0.9999760389328003,-0.013837816,0.0,0.0,0.0,0.0,0.469,0.0,0.0,0.016,53.141403675079346,3.5940001010894775,False,True,False,True,True,False,False
46,0.46,0.029,0.036,0.207,0.0027675412129610777,0.0027675412129610777,-0.005535082425922155,0.9999769926071167,-0.011054989,0.0055656214,0.005504431,-0.024,0.066,0.56,0.315,0.17,0.003,53.16165256500244,0.02981521189212799,0.03611290082335472,0.20872963964939117,,,,,,,,0.6668650339513237,0.6399481193255512,0.6542305638208591,0.6827954528114748,104900.0,104200.0,103800.0,104200.0,53.16165256500244,0.8046082246128023,0.042465857938506144,-0.0006408789196612497,0.8046082246128023,0.128,-0.133,10.67619,53.16165256500244,0.034,0.021,0.142,0.0,0.0,-0.005535082425922155,0.9999846816062927,-0.011070222,0.0,0.0,0.0,0.0,0.495,0.0,0.0,0.016,53.16165256500244,3.6050000190734863,False,True,False,True,True,False,False
47,0.47000000000000003,0.029,0.036,0.207,0.0027675412129610777,0.0027675412129610777,-0.005535082425922155,0.9999769926071167,-0.011054989,0.0055656214,0.005504431,-0.024,0.066,0.56,0.315,0.17,0.003,53.16165256500244,0.02981521189212799,0.03611290082335472,0.20872963964939117,,,,,,,,0.6668650339513237,0.6399481193255512,0.6542305638208591,0.6827954528114748,104900.0,104200.0,103800.0,104200.0,53.16165256500244,0.8046082246128023,0.042465857938506144,-0.0006408789196612497,0.8046082246128023,0.128,-0.133,10.67619,53.16165256500244,0.034,0.021,0.142,0.0,0.0,-0.005535082425922155,0.9999846816062927,-0.011070222,0.0,0.0,0.0,0.0,0.495,0.0,0.0,0.016,53.16165256500244,3.6050000190734863,False,True,False,True,True,False,False
48,0.48,0.028,0.036,0.217,0.005535082425922155,0.005535082425922155,-0.005535082425922155,0.9999540448188782,-0.011009286,0.011131161,0.011009286,-0.017,0.079,0.566,0.34,0.173,0.014,53.18160533905029,0.028813686221837997,0.03737301379442215,0.22503253817558289,,,,,,,,0.6973373006790264,0.6428320744640269,0.6508583199816892,0.6962081330586709,105300.0,103100.0,104200.0,104900.0,53.18160533905029,0.8610055695429923,-0.012909132524605172,0.003036545357442588,0.8610055695429923,0.196,-0.211,10.57019,53.18160533905029,0.034,0.021,0.152,0.0,0.0,-0.005535082425922155,0.9999846816062927,-0.011070222,0.0,0.0,0.0,0.0,0.52,0.0,0.0,0.017,53.18160533905029,3.6050000190734863,False,True,False,True,True,False,False
49,0.49,0.028,0.036,0.217,0.005535082425922155,0.005535082425922155,-0.005535082425922155,0.9999540448188782,-0.011009286,0.011131161,0.011009286,-0.017,0.079,0.566,0.34,0.173,0.014,53.18160533905029,0.028813686221837997,0.03737301379442215,0.22503253817558289,,,,,,,,0.6973373006790264,0.6428320744640269,0.6508583199816892,0.6962081330586709,105300.0,103100.0,104200.0,104900.0,53.18160533905029,0.8610055695429923,-0.012909132524605172,0.003036545357442588,0.8610055695429923,0.196,-0.211,10.57019,53.18160533905029,0.034,0.021,0.152,0.0,0.0,-0.005535082425922155,0.9999846816062927,-0.011070222,0.0,0.0,0.0,0.0,0.52,0.0,0.0,0.017,53.18160533905029,3.6050000190734863,False,True,False,True,True,False,False
50,0.5,0.028,0.038,0.229,0.00830262340605259,0.006918853148818016,-0.004151311703026295,0.9999330043792725,-0.008188062,0.013906161,0.016549045,-0.013,0.099,0.587,0.401,0.108,0.002,53.203819036483765,0.028443247079849243,0.03796489164233208,0.23665569722652435,,,,,,,,0.6734264133669032,0.6445258258945602,0.6493171587701229,0.678767071030747,103800.0,102700.0,104200.0,105300.0,53.203819036483765,0.7513694972152285,0.02178988326848249,0.0012817578393224994,0.7513694972152285,0.256,-0.243,10.60519,53.203819036483765,0.034,0.021,0.163,0.0,0.0,-0.005535082425922155,0.9999846816062927,-0.011070222,0.0,0.0,0.0,0.0,0.543,0.0,0.0,0.018,53.203819036483765,3.5940001010894775,False,True,False,True,True,False,False
51,0.51,0.028,0.038,0.229,0.00830262340605259,0.006918853148818016,-0.004151311703026295,0.9999330043792725,-0.008188062,0.013906161,0.016549045,-0.013,0.099,0.587,0.401,0.108,0.002,53.203819036483765,0.028443247079849243,0.03796489164233208,0.23665569722652435,,,,,,,,0.6734264133669032,0.6445258258945602,0.6493171587701229,0.678767071030747,103800.0,102700.0,104200.0,105300.0,53.203819036483765,0.7513694972152285,0.02178988326848249,0.0012817578393224994,0.7513694972152285,0.256,-0.243,10.60519,53.203819036483765,0.034,0.021,0.163,0.0,0.0,-0.005535082425922155,0.9999846816062927,-0.011070222,0.0,0.0,0.0,0.0,0.543,0.0,0.0,0.018,53.203819036483765,3.5940001010894775,False,True,False,True,True,False,False
52,0.52,0.028,0.037,0.228,0.009686394594609737,0.00830262340605259,-0.004151311703026295,0.9999099969863892,-0.008142254,0.01668495,0.019305998,-0.008,0.087,0.578,0.484,0.07,0.017,53.21194839477539,0.028173698112368584,0.03827175498008728,0.24232040345668793,,,,,,,,0.6938277256427863,0.6703593499656672,0.6272068360418097,0.6384069581139848,105300.0,102400.0,102000.0,103100.0,53.21194839477539,0.35342946517128254,0.013153276874952316,0.0021362630655374993,0.35342946517128254,0.253,-0.246,10.50019,53.21194839477539,0.034,0.021,0.168,0.0,0.0,-0.005535082425922155,0.9999846816062927,-0.011070222,0.0,0.0,0.0,0.0,0.554,0.0,0.0,0.018,53.21194839477539,3.5940001010894775,False,True,False,True,True,False,False
53,0.53,0.027,0.038,0.234,0.012453935109078884,0.00830262340605259,-0.004151311703026295,0.9998793601989746,-0.008096039,0.016707422,0.024841955,-0.008,0.086,0.586,0.435,0.023,-0.024,53.22165369987488,0.02794279158115387,0.03838416188955307,0.24841240048408508,,,,,,,,0.6857404440375372,0.6944686045624475,0.6817730983443961,0.6901350423437858,106400.0,104200.0,102400.0,103100.0,53.22165369987488,0.6227817196917678,0.009521629663538568,0.003143358510719463,0.6227817196917678,0.243,-0.319,10.35319,53.22165369987488,0.034,0.021,0.174,0.0,0.0,-0.005535082425922155,0.9999846816062927,-0.011070222,0.0,0.0,0.0,0.0,0.564,0.0,0.0,0.019,53.22165369987488,3.5940001010894775,False,True,False,True,True,False,False
54,0.54,0.027,0.038,0.246,0.015221476554870605,0.00830262340605259,-0.004151311703026295,0.999841034412384,-0.008049761,0.016729767,0.030378103,-0.008,0.071,0.617,0.334,-0.011,0.01,53.2313117980957,0.02785489894449711,0.03863796219229698,0.2543092966079712,,,,,,,,0.6439459830624857,0.6550240329594873,0.6611886778057526,0.6432135500114443,104500.0,102400.0,101700.0,103100.0,53.2313117980957,0.3219501029983978,-0.010452429999237048,0.0008545052262149996,0.3219501029983978,0.24,-0.478,10.31319,53.2313117980957,0.034,0.021,0.179,0.0,0.0,-0.005535082425922155,0.9999846816062927,-0.011070222,0.0,0.0,0.0,0.0,0.574,0.0,0.0,0.019,53.2313117980957,3.609999895095825,False,True,False,True,True,False,False
55,0.55,0.027,0.039,0.252,0.01660524681210518,0.00830262340605259,-0.004151311703026295,0.9998190402984619,-0.008026598,0.016740892,0.033146266,-0.008,0.082,0.623,0.203,0.032,-0.01,53.241392612457275,0.02785489894449711,0.03863796219229698,0.2543092966079712,,,,,,,,0.6281071183337148,0.617944609750515,0.6656137941557946,0.6843213550011444,104200.0,103100.0,102400.0,101000.0,53.241392612457275,0.08349736781872281,0.0031586175326161594,0.00018310826276035706,0.08349736781872281,0.19,-0.487,10.27919,53.241392612457275,0.034,0.021,0.185,0.0,0.0,-0.005535082425922155,0.9999846816062927,-0.011070222,0.0,0.0,0.0,0.0,0.584,0.0,0.0,0.019,53.241392612457275,3.609999895095825,False,True,False,True,True,False,False
56,0.56,0.027,0.039,0.259,0.017989017069339752,0.00830262340605259,-0.004151311703026295,0.9997950792312622,-0.008003417,0.016751984,0.035914488,-0.003,0.075,0.631,0.171,0.064,0.001,53.25126123428345,0.027706723660230637,0.03912084922194481,0.2661769986152649,,,,,,,,0.6486762798504616,0.6142519264515145,0.6339360646982528,0.6683604180971999,103100.0,102000.0,102700.0,102400.0,53.25126123428345,0.475745784695201,0.012787060349431601,0.0012970168612191958,0.475745784695201,0.154,-0.425,10.25519,53.25126123428345,0.034,0.021,0.191,0.0,0.0,-0.005535082425922155,0.9999846816062927,-0.011070222,0.0,0.0,0.0,0.0,0.593,0.0,0.0,0.02,53.25126123428345,3.609999895095825,False,True,False,True,True,False,False
57,0.5700000000000001,0.026,0.039,0.257,0.019372789189219475,0.00830262340605259,-0.004151311703026295,0.9997692108154297,-0.007980224,0.016763045,0.038682785,-0.006,0.07,0.616,0.215,0.105,0.0,53.261558532714844,0.02746569737792015,0.03921706974506378,0.27221882343292236,,,,,,,,0.7162279697871367,0.6644083314259556,0.6315709163042649,0.6888838025482567,102000.0,100300.0,101000.0,102400.0,53.261558532714844,0.8161898222323949,0.06060883497367819,-0.0019836728465705347,0.8161898222323949,0.177,-0.423,10.10119,53.261558532714844,0.034,0.021,0.197,0.0,0.0,-0.005535082425922155,0.9999846816062927,-0.011070222,0.0,0.0,0.0,0.0,0.601,0.0,0.0,0.02,53.261558532714844,3.609999895095825,False,True,False,True,True,False,False
58,0.58,0.026,0.039,0.268,0.020756559446454048,0.00830262340605259,-0.004151311703026295,0.9997414946556091,-0.007957012,0.016774073,0.041451152,-0.004,0.051,0.637,0.261,-0.019,0.019,53.27176880836487,0.027792494744062424,0.039174363017082214,0.27833837270736694,,,,,,,,0.6710612649729152,0.6774700541695278,0.6346532387273975,0.6089570458533607,104200.0,100000.0,100700.0,101700.0,53.27176880836487,0.4174868390936141,0.0635080491340505,-0.0008239871824216068,0.4174868390936141,0.216,-0.447,10.00619,53.27176880836487,0.034,0.021,0.202,0.0,0.0,-0.005535082425922155,0.9999846816062927,-0.011070222,0.0,0.0,0.0,0.0,0.609,0.0,0.0,0.02,53.27176880836487,3.6050000190734863,False,True,False,True,True,False,False
59,0.59,0.026,0.039,0.276,0.020756559446454048,0.00830262340605259,-0.004151311703026295,0.9997414946556091,-0.007957012,0.016774073,0.041451152,-0.002,0.059,0.649,0.113,-0.001,0.031,53.28171396255493,0.027349146082997322,0.03922348842024803,0.2844615578651428,,,,,,,,0.6132295719844358,0.5962005035477226,0.6643778133821622,0.66498817425803,104500.0,102700.0,100700.0,100300.0,53.28171396255493,0.732692454413672,-0.0371099412527657,0.0055848020141908905,0.732692454413672,0.18,-0.567,10.00619,53.28171396255493,0.034,0.021,0.209,0.0,0.0,-0.005535082425922155,0.9999846816062927,-0.011070222,0.0,0.0,0.0,0.0,0.616,0.0,0.0,0.021,53.28171396255493,3.6050000190734863,False,True,False,True,True,False,False
60,0.6,0.026,0.039,0.283,0.02214032970368862,0.00830262340605259,-0.004151311703026295,0.9997117519378662,-0.007933785,0.01678507,0.0442196,-0.004,0.051,0.654,0.013,0.027,0.011,53.291380882263184,0.027303550392389297,0.03925728425383568,0.2906615734100342,,,,,,,,0.6197909514000153,0.5989166094453345,0.6418860151064317,0.6521400778210117,101000.0,100000.0,101000.0,101000.0,53.291380882263184,0.24374761577782864,0.02413977264057374,0.005554283970397498,0.24374761577782864,0.163,-0.591,10.00019,53.291380882263184,0.034,0.021,0.215,0.0,0.0,-0.005535082425922155,0.9999846816062927,-0.011070222,0.0,0.0,0.0,0.0,0.622,0.0,0.0,0.021,53.291380882263184,3.6050000190734863,False,True,False,True,True,False,False
61,0.61,0.026,0.039,0.289,0.02214032970368862,0.009686394594609737,-0.0027675412129610777,0.999704122543335,-0.0051055164,0.01949084,0.044236768,0.0,0.047,0.656,-0.001,0.068,0.018,53.301403522491455,0.02740495279431343,0.039183832705020905,0.296647310256958,,,,,,,,0.6472419317921722,0.5946288242923629,0.6077210650797283,0.6517891203173877,100000.0,99300.0,101000.0,101700.0,53.301403522491455,0.8366674296177615,0.03129625391012436,0.0042725261310749985,0.8366674296177615,0.21,-0.523,9.82919,53.301403522491455,0.034,0.021,0.221,0.0,0.0,-0.004151311703026295,0.9999913573265076,-0.008302647,0.0,0.0,0.0,0.0,0.629,0.0,0.0,0.021,53.301403522491455,3.6050000190734863,False,True,False,True,True,False,False
62,0.62,0.026,0.039,0.292,0.023524099960923195,0.009686394594609737,-0.0027675412129610777,0.999672532081604,-0.00507853,0.019497888,0.04700542,0.0,0.039,0.655,0.068,0.027,0.011,53.3124098777771,0.027534062042832375,0.039112258702516556,0.3027503490447998,,,,,,,,0.6562752727550164,0.6522163729304952,0.614526588845655,0.6104676890211338,102000.0,98400.0,100000.0,100300.0,53.3124098777771,0.07765316243228809,0.059113450827801936,0.002365148393987945,0.07765316243228809,0.212,-0.446,9.674190000000001,53.3124098777771,0.034,0.021,0.227,0.0,0.0,-0.004151311703026295,0.9999913573265076,-0.008302647,0.0,0.0,0.0,0.0,0.634,0.0,0.0,0.021,53.3124098777771,3.6050000190734863,False,True,False,True,True,False,False
63,0.63,0.026,0.039,0.3,0.023524099960923195,0.009686394594609737,-0.0027675412129610777,0.999672532081604,-0.00507853,0.019497888,0.04700542,0.002,0.033,0.66,0.09,-0.015,0.014,53.32145810127258,0.02734251506626606,0.03901737183332443,0.30888378620147705,,,,,,,,0.6442053864347296,0.6397497520408941,0.6090485999847409,0.6038605325398642,102700.0,99000.0,100000.0,99000.0,53.32145810127258,0.4379339284351873,0.03079270618753338,0.005401693751430533,0.4379339284351873,0.251,-0.462,9.664190000000001,53.32145810127258,0.034,0.021,0.233,0.0,0.0,-0.004151311703026295,0.9999913573265076,-0.008302647,0.0,0.0,0.0,0.0,0.639,0.0,0.0,0.021,53.32145810127258,3.6050000190734863,False,True,False,True,True,False,False
64,0.64,0.027,0.039,0.307,0.023524099960923195,0.009686394594609737,-0.0027675412129610777,0.999672532081604,-0.00507853,0.019497888,0.04700542,0.009,0.027,0.66,0.025,-0.048,0.008,53.33154582977295,0.027436694130301476,0.038724906742572784,0.3150409460067749,,,,,,,,0.6264591439688716,0.6115358205539025,0.6196841382467384,0.6227054245822843,102000.0,99000.0,98000.0,97700.0,53.33154582977295,0.032608529793240255,0.020630197604333562,0.002822919050888838,0.032608529793240255,0.228,-0.527,9.607190000000001,53.33154582977295,0.034,0.021,0.24,0.0,0.0,-0.004151311703026295,0.9999913573265076,-0.008302647,0.0,0.0,0.0,0.0,0.643,0.0,0.0,0.021,53.33154582977295,3.6050000190734863,False,True,False,True,True,False,False
65,0.65,0.027,0.038,0.314,0.023524099960923195,0.009686394594609737,-0.0027675412129610777,0.999672532081604,-0.00507853,0.019497888,0.04700542,0.008,0.019,0.66,-0.083,-0.108,0.024,53.341482400894165,0.027525007724761963,0.03859848529100418,0.3211268186569214,,,,,,,,0.5976195925841153,0.6147402151522088,0.6433966582742047,0.6091859311818112,100700.0,100000.0,98000.0,98000.0,53.341482400894165,0.25764858472571905,0.016327153429465172,0.004577706569008927,0.25764858472571905,0.179,-0.577,9.466190000000001,53.341482400894165,0.034,0.021,0.246,0.0,0.0,-0.004151311703026295,0.9999913573265076,-0.008302647,0.0,0.0,0.0,0.0,0.646,0.0,0.0,0.022,53.341482400894165,3.6050000190734863,False,True,False,True,True,False,False
66,0.66,0.027,0.038,0.313,0.023524099960923195,0.009686394594609737,-0.0027675412129610777,0.999672532081604,-0.00507853,0.019497888,0.04700542,0.012,0.014,0.638,-0.173,-0.029,0.023,53.35153412818909,0.027380287647247314,0.038266804069280624,0.32724452018737793,,,,,,,,0.6662851911192492,0.6075684748607614,0.6427557793545434,0.6831616693369955,99300.0,98000.0,98400.0,98700.0,53.35153412818909,0.2239414053559167,-0.01240558480201419,0.003341725795376516,0.2239414053559167,0.169,-0.525,9.36519,53.35153412818909,0.034,0.021,0.252,0.0,0.0,-0.004151311703026295,0.9999913573265076,-0.008302647,0.0,0.0,0.0,0.0,0.649,0.0,0.0,0.022,53.35153412818909,3.6050000190734863,False,True,False,True,True,False,False
67,0.67,0.027,0.038,0.323,0.023524099960923195,0.00830262340605259,-0.0027675412129610777,0.9996849894523621,-0.005143458,0.016731005,0.047011316,0.009,0.009,0.65,-0.145,-0.031,0.024,53.36119103431702,0.02780364453792572,0.038129646331071854,0.3332872986793518,,,,,,,,0.6433203631647212,0.620004577706569,0.6212863355458915,0.6236667429617762,100000.0,97100.0,100000.0,99300.0,53.36119103431702,0.15034714274814984,0.03747615777828641,0.006256198977645533,0.15034714274814984,0.182,-0.492,9.39019,53.36119103431702,0.034,0.021,0.259,0.0,0.0,-0.004151311703026295,0.9999913573265076,-0.008302647,0.0,0.0,0.0,0.0,0.651,0.0,0.0,0.022,53.36119103431702,3.6050000190734863,False,True,False,True,True,False,False
68,0.68,0.027,0.038,0.331,0.02214032970368862,0.00830262340605259,-0.0027675412129610777,0.999716579914093,-0.0051666135,0.01672387,0.04424277,0.015,0.0,0.652,-0.152,-0.035,0.014,53.371912240982056,0.027634501457214355,0.03798376023769379,0.33893442153930664,,,,,,,,0.6370183871213855,0.5870908674753949,0.6023498893720912,0.6376287479972533,100300.0,98400.0,99000.0,98700.0,53.371912240982056,0.2864271000228885,0.016281376363775083,0.004364080262455177,0.2864271000228885,0.193,-0.48,9.47119,53.371912240982056,0.034,0.021,0.265,0.0,0.0,-0.004151311703026295,0.9999913573265076,-0.008302647,0.0,0.0,0.0,0.0,0.652,0.0,0.0,0.022,53.371912240982056,3.6050000190734863,False,True,False,True,True,False,False
69,0.6900000000000001,0.027,0.037,0.338,0.02214032970368862,0.00830262340605259,-0.0027675412129610777,0.999716579914093,-0.0051666135,0.01672387,0.04424277,0.011,-0.017,0.648,-0.168,-0.083,0.016,53.38140654563904,0.027677472680807114,0.03755008056759834,0.3449934124946594,,,,,,,,0.6210421911955444,0.6147249561303121,0.619150072480354,0.6012970168612192,100000.0,98000.0,99000.0,98000.0,53.38140654563904,0.7269092851148241,0.026550698100251773,0.0053711757076371405,0.7269092851148241,0.232,-0.529,9.38519,53.38140654563904,0.034,0.021,0.272,0.0,0.0,-0.004151311703026295,0.9999913573265076,-0.008302647,0.0,0.0,0.0,0.0,0.653,0.0,0.0,0.022,53.38140654563904,3.6050000190734863,False,True,False,True,True,False,False
70,0.7000000000000001,0.027,0.037,0.344,0.02214032970368862,0.00830262340605259,-0.0027675412129610777,0.999716579914093,-0.0051666135,0.01672387,0.04424277,0.01,-0.022,0.644,-0.254,-0.049,0.03,53.391270875930786,0.027870282530784607,0.036998070776462555,0.3510388135910034,,,,,,,,0.6202792401007096,0.5875638971541924,0.6206454566262303,0.6226596475165942,99300.0,97700.0,97100.0,97100.0,53.391270875930786,0.23476005188067445,-0.0354009308003357,0.005905241474021515,0.23476005188067445,0.193,-0.514,9.277190000000001,53.391270875930786,0.034,0.021,0.278,0.0,0.0,-0.004151311703026295,0.9999913573265076,-0.008302647,0.0,0.0,0.0,0.0,0.653,0.0,0.0,0.022,53.391270875930786,3.615000009536743,False,True,False,True,True,False,False
71,0.71,0.027,0.036,0.346,0.020756559446454048,0.00830262340605259,-0.0013837706064805388,0.9997491240501404,-0.0024225176,0.016659295,0.04149739,0.014,-0.029,0.639,-0.318,-0.081,0.018,53.401824951171875,0.027981258928775787,0.03659483790397644,0.35686343908309937,,,,,,,,0.611062790875105,0.6100251773861296,0.6417639429312582,0.6177157244220646,99000.0,97400.0,98400.0,97100.0,53.401824951171875,0.17254901960784313,0.009658960860608835,0.004150453955901427,0.17254901960784313,0.186,-0.464,9.267190000000001,53.401824951171875,0.034,0.021,0.285,0.0,0.0,-0.004151311703026295,0.9999913573265076,-0.008302647,0.0,0.0,0.0,0.0,0.652,0.0,0.0,0.022,53.401824951171875,3.615000009536743,False,True,False,True,True,False,False
72,0.72,0.027,0.036,0.354,0.019372789189219475,0.006918853148818016,-0.0013837706064805388,0.999787449836731,-0.002499122,0.013888827,0.038731612,0.012,-0.032,0.64,-0.358,-0.04,0.004,53.41219115257263,0.028146732598543167,0.03615641966462135,0.36263126134872437,,,,,,,,0.6029449912260624,0.5853665980010682,0.6205539024948501,0.6292210269321736,98000.0,97100.0,99300.0,95800.0,53.41219115257263,0.06071564812695506,-0.008209353780422675,0.007217517357137408,0.06071564812695506,0.161,-0.411,9.30719,53.41219115257263,0.034,0.021,0.291,0.0,0.0,-0.004151311703026295,0.9999913573265076,-0.008302647,0.0,0.0,0.0,0.0,0.651,0.0,0.0,0.022,53.41219115257263,3.615000009536743,False,True,False,True,True,False,False
73,0.73,0.027,0.035,0.361,0.017989017069339752,0.006918853148818016,-0.0013837706064805388,0.9998132586479187,-0.002518343,0.013885354,0.035963383,0.011,-0.043,0.636,-0.336,-0.025,0.023,53.42192077636719,0.028164681047201157,0.035688724368810654,0.36826092004776,,,,,,,,0.6241702906843671,0.5831540398260472,0.6005188067444877,0.6085145342183566,97700.0,96200.0,97700.0,98000.0,53.42192077636719,0.6079652094300755,0.031998168917372394,0.0027008468757152666,0.6079652094300755,0.141,-0.352,9.264190000000001,53.42192077636719,0.034,0.021,0.298,0.0,0.0,-0.0027675412129610777,0.9999961853027344,-0.00553509,0.0,0.0,0.0,0.0,0.649,0.0,0.0,0.022,53.42192077636719,3.615000009536743,False,True,False,True,True,False,False
74,0.74,0.027,0.035,0.367,0.01660524681210518,0.006918853148818016,-0.0013837706064805388,0.9998372197151184,-0.0025375595,0.013881856,0.033195235,0.015,-0.046,0.631,-0.332,-0.003,0.013,53.43524670600891,0.0287335142493248,0.03507472574710846,0.3739514946937561,,,,,,,,0.6141145952544442,0.562050812542916,0.5992828259708552,0.6266269932097353,98700.0,97100.0,97700.0,96200.0,53.43524670600891,0.25690089265278093,0.003723201342793927,0.010467689021133745,0.25690089265278093,0.112,-0.316,9.193190000000001,53.43524670600891,0.034,0.021,0.304,0.0,0.0,-0.0027675412129610777,0.9999961853027344,-0.00553509,0.0,0.0,0.0,0.0,0.646,0.0,0.0,0.022,53.43524670600891,3.625999927520752,False,True,False,True,True,False,False
75,0.75,0.028,0.034,0.365,0.015221476554870605,0.006918853148818016,-0.0013837706064805388,0.9998592734336853,-0.0025567706,0.0138783315,0.030427147,0.016,-0.049,0.604,-0.361,-0.009,0.013,53.44162058830261,0.028469441458582878,0.0347859151661396,0.379555881023407,,,,,,,,0.6258182650492103,0.5959716182192721,0.6607309071488517,0.6640268558785382,98700.0,94600.0,96800.0,95200.0,53.44162058830261,0.5835507743953613,0.03694209201190204,0.006713969634546426,0.5835507743953613,0.132,-0.288,9.09519,53.44162058830261,0.034,0.021,0.31,0.0,0.0,-0.0027675412129610777,0.9999961853027344,-0.00553509,0.0,0.0,0.0,0.0,0.643,0.0,0.0,0.021,53.44162058830261,3.625999927520752,False,True,False,True,True,False,False
76,0.76,0.028,0.034,0.375,0.012453935109078884,0.006918853148818016,-0.0013837706064805388,0.9998975396156311,-0.0025951765,0.0138712,0.024891136,0.014,-0.052,0.613,-0.363,-0.036,0.027,53.452553272247314,0.028798116371035576,0.034101784229278564,0.38501429557800293,,,,,,,,0.6220798046845197,0.576272220950637,0.6164339665827421,0.6325780117494468,98000.0,96800.0,98000.0,97400.0,53.452553272247314,0.8753643091477836,0.018814373998626687,0.004089417868314641,0.8753643091477836,0.153,-0.276,9.06619,53.452553272247314,0.034,0.021,0.317,0.0,0.0,-0.0027675412129610777,0.9999961853027344,-0.00553509,0.0,0.0,0.0,0.0,0.639,0.0,0.0,0.021,53.452553272247314,3.625999927520752,False,True,False,True,True,False,False
77,0.77,0.028,0.033,0.383,0.01107016485184431,0.006918853148818016,-0.0013837706064805388,0.9999138116836548,-0.0026143717,0.013867594,0.022123206,0.024,-0.055,0.613,-0.336,-0.054,0.025,53.46461081504822,0.029144350439310074,0.03359910100698471,0.3906556963920593,,,,,,,,0.6021057450217441,0.5769588769359884,0.6078126192111085,0.607690547035935,98000.0,95500.0,97100.0,96200.0,53.46461081504822,0.760189211871519,0.02153047989623865,0.005462729839017319,0.760189211871519,0.136,-0.163,9.19819,53.46461081504822,0.034,0.021,0.323,0.0,0.0,-0.0027675412129610777,0.9999961853027344,-0.00553509,0.0,0.0,0.0,0.0,0.634,0.0,0.0,0.021,53.46461081504822,3.625999927520752,False,True,False,True,True,False,False
78,0.78,0.028,0.033,0.389,0.009686394594609737,0.006918853148818016,-0.0013837706064805388,0.9999281764030457,-0.002633561,0.013863964,0.01935532,0.026,-0.062,0.608,-0.349,-0.068,-0.004,53.47142553329468,0.029224799945950508,0.03300216794013977,0.3959617614746094,,,,,,,,0.5990386816205081,0.5739528496223392,0.5894560158693828,0.6083161669336995,97700.0,96200.0,97100.0,96500.0,53.47142553329468,0.4499580376897841,0.05044632639047837,0.00827038986800946,0.4499580376897841,0.122,-0.155,9.10119,53.47142553329468,0.034,0.021,0.329,0.0,0.0,-0.0027675412129610777,0.9999961853027344,-0.00553509,0.0,0.0,0.0,0.0,0.629,0.0,0.0,0.021,53.47142553329468,3.63100004196167,False,True,False,True,True,False,False
79,0.79,0.028,0.032,0.395,0.00830262340605259,0.005535082425922155,-0.0013837706064805388,0.9999492764472961,-0.0026756574,0.011092808,0.016590869,0.027,-0.062,0.6,-0.338,-0.106,0.035,53.48135209083557,0.029556438326835632,0.03239911049604416,0.40136784315109253,,,,,,,,0.5901426718547341,0.5810177767605097,0.6093385214007782,0.5842221713588159,96800.0,93500.0,96800.0,95500.0,53.48135209083557,0.13882658121614405,0.031143663691157397,0.00032043945983062486,0.13882658121614405,0.164,-0.181,9.01619,53.48135209083557,0.034,0.021,0.335,0.0,0.0,-0.0027675412129610777,0.9999961853027344,-0.00553509,0.0,0.0,0.0,0.0,0.623,0.0,0.0,0.021,53.48135209083557,3.63100004196167,False,True,False,True,True,False,False
80,0.8,0.029,0.032,0.397,0.005535082425922155,0.005535082425922155,-0.0013837706064805388,0.999968409538269,-0.0027063491,0.011085361,0.0110554015,0.029,-0.042,0.591,-0.348,-0.095,0.019,53.49139928817749,0.029835134744644165,0.03183627873659134,0.40654581785202026,,,,,,,,0.5892881666285191,0.5379568169680323,0.6153200579842832,0.6540779736018921,97100.0,94000.0,97100.0,96500.0,53.49139928817749,0.8161287861448081,0.018142977035172047,0.006576638437476158,0.8161287861448081,0.15,-0.098,8.927190000000001,53.49139928817749,0.034,0.021,0.341,0.0,0.0,-0.0027675412129610777,0.9999961853027344,-0.00553509,0.0,0.0,0.0,0.0,0.617,0.0,0.0,0.021,53.49139928817749,3.63100004196167,False,True,False,True,True,False,False
81,0.81,0.029,0.031,0.404,0.004151311703026295,0.005535082425922155,-0.0013837706064805388,0.9999750852584839,-0.002721687,0.011081605,0.008287702,0.026,-0.045,0.589,-0.323,-0.155,0.03,53.50100255012512,0.030164416879415512,0.031151169911026955,0.41183698177337646,,,,,,,,0.5571374074921798,0.5706263828488594,0.6283360036621652,0.5926298924238956,97100.0,94600.0,96200.0,96500.0,53.50100255012512,0.06062409399557488,0.014404516670481423,0.005828946364538033,0.06062409399557488,0.096,-0.042,8.975190000000001,53.50100255012512,0.034,0.021,0.348,0.0,0.0,-0.0027675412129610777,0.9999961853027344,-0.00553509,0.0,0.0,0.0,0.0,0.61,0.0,0.0,0.02,53.50100255012512,3.63100004196167,False,True,False,True,True,False,False
82,0.8200000000000001,0.029,0.03,0.41,0.0013837706064805388,0.004151311703026295,-0.0013837706064805388,0.9999894499778748,-0.0027561218,0.008306461,0.0027561218,0.027,-0.046,0.58,-0.251,-0.11,0.028,53.51219630241394,0.030218254774808884,0.030517728999257088,0.41673654317855835,,,,,,,,0.5882810711833372,0.5742732890821698,0.5889219501029984,0.5821164263370718,95800.0,94000.0,96500.0,95200.0,53.51219630241394,0.08235294117647059,-0.015106431677729458,0.0025787747005416952,0.08235294117647059,0.118,0.01,8.97319,53.51219630241394,0.034,0.021,0.353,0.0,0.0,-0.0027675412129610777,0.9999961853027344,-0.00553509,0.0,0.0,0.0,0.0,0.602,0.0,0.0,0.02,53.51219630241394,3.63100004196167,False,True,False,True,True,False,False
83,0.8300000000000001,0.03,0.03,0.416,0.0,0.004151311703026295,-0.0013837706064805388,0.9999904036521912,-0.0027676136,0.008302638,-1.1489322e-05,0.029,-0.041,0.572,-0.193,-0.091,0.048,53.521857500076294,0.030693823471665382,0.029964296147227287,0.42175930738449097,,,,,,,,0.6098573281452659,0.5559624628061342,0.5657587548638132,0.584924086366064,95200.0,92600.0,94900.0,94300.0,53.521857500076294,0.3066910811017014,0.03143358510719463,0.006164644846265354,0.3066910811017014,0.082,0.015,8.89319,53.521857500076294,0.034,0.021,0.359,0.0,0.0,-0.0027675412129610777,0.9999961853027344,-0.00553509,0.0,0.0,0.0,0.0,0.594,0.0,0.0,0.02,53.521857500076294,3.63100004196167,False,True,False,True,True,False,False
84,0.84,0.03,0.029,0.413,-0.0013837706064805388,0.004151311703026295,-0.0013837706064805388,0.9999894499778748,-0.0027791006,0.008298801,-0.0027791006,0.032,-0.046,0.543,-0.13,-0.089,0.028,53.53127837181091,0.031028293073177338,0.02933528833091259,0.4266737103462219,,,,,,,,0.6354161898222324,0.5988860914015411,0.605325398641947,0.6158541237506676,95200.0,92300.0,96200.0,94000.0,53.53127837181091,0.31027695124742505,0.04119935912108034,0.0071564812695506215,0.31027695124742505,0.077,0.003,8.78819,53.53127837181091,0.034,0.021,0.365,0.0,0.0,-0.0027675412129610777,0.9999961853027344,-0.00553509,0.0,0.0,0.0,0.0,0.585,0.0,0.0,0.019,53.53127837181091,3.63100004196167,False,True,False,True,True,False,False
85,0.85,0.03,0.028,0.422,-0.0013837706064805388,0.0027675412129610777,-0.0013837706064805388,0.9999942779541016,-0.0027752304,0.005531249,-0.0027752304,0.032,-0.046,0.548,-0.127,-0.047,0.012,53.54194974899292,0.0312204472720623,0.028653357177972794,0.43143796920776367,,,,,,,,0.605676356145571,0.5593499656672007,0.5772945754177157,0.61196307316701,96200.0,93500.0,94900.0,95200.0,53.54194974899292,0.36102845807583733,-0.010605020218204014,0.009704737926298924,0.36102845807583733,0.094,-0.001,8.74219,53.54194974899292,0.034,0.021,0.371,0.0,0.0,-0.0027675412129610777,0.9999961853027344,-0.00553509,0.0,0.0,0.0,0.0,0.575,0.0,0.0,0.019,53.54194974899292,3.63100004196167,False,True,False,True,True,False,False
86,0.86,0.031,0.028,0.427,-0.0013837706064805388,0.0027675412129610777,-0.0013837706064805388,0.9999942779541016,-0.0027752304,0.005531249,-0.0027752304,0.033,-0.046,0.538,-0.172,-0.07,0.009,53.55148434638977,0.03170173987746239,0.028011981397867203,0.4362103343009949,,,,,,,,0.5835049973296712,0.5377279316395819,0.5923552300297551,0.6278782330052644,95800.0,93200.0,94300.0,94000.0,53.55148434638977,0.9984130617227436,0.053528648813611045,0.003341725795376516,0.9984130617227436,0.083,-0.021,8.71119,53.55148434638977,0.034,0.021,0.377,0.0,0.0,-0.0027675412129610777,0.9999961853027344,-0.00553509,0.0,0.0,0.0,0.0,0.566,0.0,0.0,0.019,53.55148434638977,3.625999927520752,False,True,False,True,True,False,False
87,0.87,0.031,0.028,0.434,-0.0027675412129610777,0.0027675412129610777,-0.0013837706064805388,0.9999913573265076,-0.002782882,0.005527403,-0.005542807,0.033,-0.043,0.537,-0.186,-0.12,0.045,53.563406467437744,0.031724464148283005,0.027389125898480415,0.44085967540740967,,,,,,,,0.559487296864271,0.5380331120775158,0.5993133440146486,0.5867093919279774,94600.0,93200.0,95200.0,93500.0,53.563406467437744,0.3184252689402609,0.010482948043030441,0.005996795605401694,0.3184252689402609,0.077,0.035,8.72419,53.563406467437744,0.034,0.021,0.382,0.0,0.0,-0.0013837706064805388,0.9999990463256836,-0.0027675421,0.0,0.0,0.0,0.0,0.555,0.0,0.0,0.018,53.563406467437744,3.625999927520752,False,True,False,True,True,False,False
88,0.88,0.031,0.027,0.44,-0.004151311703026295,0.0013837706064805388,-0.0013837706064805388,0.9999894499778748,-0.0027790153,0.0027560266,-0.008306493,0.031,-0.045,0.526,-0.169,-0.15,0.042,53.57149291038513,0.03206994757056236,0.026812467724084854,0.4451639652252197,,,,,,,,0.5602349889372091,0.5575494010833906,0.5919432364385443,0.5600213626306554,95800.0,91700.0,93800.0,93800.0,53.57149291038513,0.7097123674372473,0.004547188525215534,0.006729228656443122,0.7097123674372473,0.042,0.041,8.75319,53.57149291038513,0.034,0.021,0.388,0.0,0.0,-0.0013837706064805388,0.9999990463256836,-0.0027675421,0.0,0.0,0.0,0.0,0.544,0.0,0.0,0.018,53.57149291038513,3.625999927520752,False,True,False,True,True,False,False
89,0.89,0.031,0.026,0.441,-0.004151311703026295,0.0013837706064805388,-0.0,0.9999904036521912,-1.148897e-05,0.0027675182,-0.008302671,0.03,-0.054,0.512,-0.177,-0.108,0.032,53.58151078224182,0.032395824790000916,0.026174470782279968,0.44964349269866943,,,,,,,,0.5857480735484856,0.5568474860761425,0.5851682307164111,0.5792782482642863,93800.0,92600.0,94900.0,93800.0,53.58151078224182,0.9637140459296559,-0.002380407415884642,0.011123826962691692,0.9637140459296559,0.054,0.034,8.616190000000001,53.58151078224182,0.034,0.021,0.393,0.0,0.0,-0.0013837706064805388,0.9999990463256836,-0.0027675421,0.0,0.0,0.0,0.0,0.533,0.0,0.0,0.018,53.58151078224182,3.625999927520752,False,True,False,True,True,False,False
90,0.9,0.032,0.025,0.447,-0.004151311703026295,0.0,0.0,0.9999913573265076,0.0,0.0,-0.008302647,0.032,-0.066,0.507,-0.148,-0.102,0.011,53.59141683578491,0.032832082360982895,0.025576546788215637,0.45390552282333374,,,,,,,,0.5951171129930571,0.552300297550927,0.5483634699015794,0.5626764324406806,94600.0,91700.0,94300.0,93200.0,53.59141683578491,0.4537270160982681,0.025558861676966506,0.006576638437476158,0.4537270160982681,0.005,0.077,8.549190000000001,53.59141683578491,0.034,0.021,0.398,0.0,0.0,-0.0013837706064805388,0.9999990463256836,-0.0027675421,0.0,0.0,0.0,0.0,0.521,0.0,0.0,0.017,53.59141683578491,3.635999917984009,False,True,False,True,True,False,False
91,0.91,0.032,0.025,0.452,-0.004151311703026295,-0.0,0.0013837706064805388,0.9999904036521912,0.0027675182,1.1488926e-05,-0.008302638,0.031,-0.07,0.495,-0.19,-0.075,0.025,53.601651430130005,0.03311147168278694,0.02507893554866314,0.4579784870147705,,,,,,,,0.5877164873731594,0.5287861448081178,0.5551537346456092,0.5706874189364461,94000.0,93500.0,94000.0,92900.0,53.601651430130005,0.4603799496452277,0.008361943999389639,0.010177767605096514,0.4603799496452277,0.0,0.054,8.46319,53.601651430130005,0.034,0.021,0.403,0.0,0.0,-0.0013837706064805388,0.9999990463256836,-0.0027675421,0.0,0.0,0.0,0.0,0.509,0.0,0.0,0.017,53.601651430130005,3.635999917984009,False,True,False,True,True,False,False
92,0.92,0.032,0.024,0.457,-0.005535082425922155,-0.0,0.0013837706064805388,0.9999837279319763,0.0027674998,1.5318568e-05,-0.011070211,0.03,-0.063,0.481,-0.239,-0.048,0.018,53.61150288581848,0.033505938947200775,0.024542685598134995,0.4620474576950073,,,,,,,,0.5693293659876402,0.5221179522392615,0.5705806057831693,0.5805600061036088,95200.0,91200.0,92900.0,91500.0,53.61150288581848,0.5352559700923171,0.004501411459525444,0.010772869459067674,0.5352559700923171,-0.015,0.044,8.43219,53.61150288581848,0.034,0.021,0.408,0.0,0.0,-0.0013837706064805388,0.9999990463256836,-0.0027675421,0.0,0.0,0.0,0.0,0.497,0.0,0.0,0.016,53.61150288581848,3.635999917984009,False,True,False,True,True,False,False
93,0.93,0.033,0.023,0.454,-0.006918853148818016,-0.0013837706064805388,0.0013837706064805388,0.9999741315841675,0.0027866322,-0.002748325,-0.013841673,0.031,-0.066,0.45,-0.296,-0.06,0.025,53.62128973007202,0.03373605012893677,0.024097992107272148,0.4659348130226135,,,,,,,,0.5917448691538872,0.5487754634927902,0.6162813763637751,0.615182726787213,93200.0,90600.0,92900.0,91500.0,53.62128973007202,0.6507362478065156,0.03181506065461204,0.012252994583047227,0.6507362478065156,-0.048,0.065,8.38019,53.62128973007202,0.034,0.021,0.413,0.0,0.0,-0.0013837706064805388,0.9999990463256836,-0.0027675421,0.0,0.0,0.0,0.0,0.484,0.0,0.0,0.016,53.62128973007202,3.635999917984009,False,True,False,True,True,False,False
94,0.9400000000000001,0.033,0.023,0.461,-0.00830262340605259,-0.0013837706064805388,0.0013837706064805388,0.999963641166687,0.0027904327,-0.0027444663,-0.016609298,0.031,-0.065,0.449,-0.32,-0.063,0.028,53.631277084350586,0.034068554639816284,0.023533612489700317,0.4696234464645386,,,,,,,,0.5577935454337377,0.5573357747768368,0.6113527122911422,0.565117875944152,94000.0,89600.0,95200.0,92600.0,53.631277084350586,0.036957351033798734,0.020279240100709545,0.009781033035782406,0.036957351033798734,0.017,0.158,8.35119,53.631277084350586,0.034,0.021,0.418,0.0,0.0,-0.0013837706064805388,0.9999990463256836,-0.0027675421,0.0,0.0,0.0,0.0,0.471,0.0,0.0,0.016,53.631277084350586,3.625999927520752,False,True,False,True,True,False,False
95,0.9500000000000001,0.033,0.023,0.467,-0.009686394594609737,-0.0013837706064805388,0.0013837706064805388,0.999951183795929,0.0027942278,-0.0027406022,-0.019376958,0.032,-0.063,0.44,-0.25,-0.07,0.029,53.64139485359192,0.034360237419605255,0.023040100932121277,0.4731917381286621,,,,,,,,0.5804074158846418,0.5390249485008011,0.5717402914473182,0.5636835278858625,93500.0,90100.0,94600.0,93200.0,53.64139485359192,0.6659037155718318,0.030502784771496146,0.010559243152513925,0.6659037155718318,-0.071,0.214,8.54019,53.64139485359192,0.034,0.021,0.422,0.0,0.0,-0.0013837706064805388,0.9999990463256836,-0.0027675421,0.0,0.0,0.0,0.0,0.457,0.0,0.0,0.015,53.64139485359192,3.625999927520752,False,True,False,True,True,False,False
96,0.96,0.034,0.022,0.472,-0.01107016485184431,-0.0013837706064805388,0.0013837706064805388,0.9999368190765381,0.0027980178,-0.0027367326,-0.022144653,0.03,-0.059,0.429,-0.197,-0.062,0.019,53.651713371276855,0.03487659990787506,0.022667573764920235,0.47647804021835327,,,,,,,,0.5665827420462348,0.5434195468070496,0.5724116884107728,0.5516899366750592,93200.0,91500.0,96200.0,92600.0,53.651713371276855,0.7259632257572289,0.03274586099031052,0.012252994583047227,0.7259632257572289,-0.002,0.205,8.46519,53.651713371276855,0.034,0.021,0.427,0.0,0.0,-0.0013837706064805388,0.9999990463256836,-0.0027675421,0.0,0.0,0.0,0.0,0.444,0.0,0.0,0.015,53.651713371276855,3.625999927520752,False,True,False,True,True,False,False
97,0.97,0.034,0.022,0.476,-0.012453935109078884,-0.0027675412129610777,0.0013837706064805388,0.9999176859855652,0.0028362935,-0.005500188,-0.024916433,0.03,-0.052,0.414,-0.17,-0.061,0.025,53.66174578666687,0.03555676341056824,0.022274378687143326,0.4802016019821167,,,,,,,,0.5677729457541771,0.5222095063706417,0.5716182192721446,0.5719539177538719,93800.0,89600.0,92600.0,92600.0,53.66174578666687,0.9862516212710766,0.03390554665445945,0.008682383459220264,0.9862516212710766,-0.047,0.202,8.456190000000001,53.66174578666687,0.034,0.021,0.431,0.0,0.0,-0.0013837706064805388,0.9999990463256836,-0.0027675421,0.0,0.0,0.0,0.0,0.429,0.0,0.0,0.014,53.66174578666687,3.625999927520752,False,True,False,True,True,False,False
98,0.98,0.034,0.021,0.476,-0.013837706297636032,-0.0027675412129610777,0.0013837706064805388,0.9998994469642639,0.0028439027,-0.005496257,-0.027684243,0.029,-0.054,0.399,-0.137,-0.065,0.019,53.671884298324585,0.03542764112353325,0.021687768399715424,0.4829943776130676,,,,,,,,0.584267948424506,0.5463340199893186,0.5741664759288929,0.5654077973601892,93800.0,89600.0,95200.0,92600.0,53.671884298324585,0.5194171053635462,0.02606240939955749,0.010833905546654459,0.5194171053635462,0.007,0.221,8.418190000000001,53.671884298324585,0.034,0.021,0.435,0.0,0.0,-0.0013837706064805388,0.9999990463256836,-0.0027675421,0.0,0.0,0.0,0.0,0.415,0.0,0.0,0.014,53.671884298324585,3.63100004196167,False,True,False,True,True,False,False
99,0.99,0.035,0.021,0.481,-0.013837706297636032,-0.0027675412129610777,0.0013837706064805388,0.9998994469642639,0.0028439027,-0.005496257,-0.027684243,0.03,-0.048,0.389,-0.084,-0.073,0.02,53.68294668197632,0.03572706878185272,0.021443894132971764,0.48625636100769043,,,,,,,,0.5920500495918212,0.5255512321660182,0.552803845273518,0.574563210498207,92600.0,89300.0,94300.0,91500.0,53.68294668197632,0.29272907606622417,0.025726710917830166,0.010131990539406424,0.29272907606622417,-0.027,0.254,8.43119,53.68294668197632,0.034,0.021,0.439,0.0,0.0,-0.0013837706064805388,0.9999990463256836,-0.0027675421,0.0,0.0,0.0,0.0,0.401,0.0,0.0,0.013,53.68294668197632,3.63100004196167,False,True,False,True,True,False,False
100,1.0,0.035,0.02,0.485,-0.015221476554870605,-0.0027675412129610777,0.0027675412129610777,0.9998764991760254,0.005618764,-0.0054501737,-0.030459674,0.029,-0.05,0.378,-0.05,-0.029,0.012,53.69147253036499,0.03593333065509796,0.020942112430930138,0.48895514011383057,,,,,,,,0.5881132219424735,0.5297627222095064,0.5473411154345007,0.5615625238422217,93200.0,90600.0,94300.0,90900.0,53.69147253036499,0.38913557640955215,-0.010543984130617228,0.014816510261692225,0.38913557640955215,-0.019,0.183,8.31419,53.69147253036499,0.034,0.021,0.443,0.0,0.0,-0.0013837706064805388,0.9999990463256836,-0.0027675421,0.0,0.0,0.0,0.0,0.387,0.0,0.0,0.013,53.69147253036499,3.63100004196167,False,True,False,True,True,False,False
101,1.01,0.035,0.02,0.488,-0.015221476554870605,-0.0027675412129610777,0.0027675412129610777,0.9998764991760254,0.005618764,-0.0054501737,-0.030459674,0.028,-0.045,0.36,-0.045,-0.007,0.008,53.701515436172485,0.036264568567276,0.020590370520949364,0.4916558265686035,,,,,,,,0.5779354543373769,0.527519645990692,0.5613031204699779,0.5720454718852521,94000.0,89000.0,93800.0,90600.0,53.701515436172485,0.5175860227359427,0.053849088273441675,0.010238803692683299,0.5175860227359427,-0.047,0.238,8.366190000000001,53.701515436172485,0.034,0.021,0.447,0.0,0.0,-0.0013837706064805388,0.9999990463256836,-0.0027675421,0.0,0.0,0.0,0.0,0.372,0.0,0.0,0.012,53.701515436172485,3.63100004196167,False,True,False,True,True,False,False
102,1.02,0.035,0.019,0.483,-0.015221476554870605,-0.0027675412129610777,0.0027675412129610777,0.9998764991760254,0.005618764,-0.0054501737,-0.030459674,0.028,-0.043,0.325,-0.084,-0.032,0.021,53.71166515350342,0.03658529371023178,0.0203558299690485,0.4945722222328186,,,,,,,,0.5945067521171893,0.5656366826886396,0.6255436026550698,0.603265430685893,94000.0,90100.0,93500.0,90100.0,53.71166515350342,0.10843060959792478,0.03602655069810025,0.01254291599908446,0.10843060959792478,-0.038,0.255,8.273190000000001,53.71166515350342,0.034,0.021,0.45,0.0,0.0,-0.0013837706064805388,0.9999990463256836,-0.0027675421,0.0,0.0,0.0,0.0,0.357,0.0,0.0,0.012,53.71166515350342,3.615000009536743,False,True,False,True,True,False,False
103,1.03,0.035,0.019,0.49,-0.015221476554870605,-0.004151311703026295,0.0027675412129610777,0.9998716711997986,0.0056609716,-0.008217399,-0.030467767,0.025,-0.041,0.325,-0.081,-0.056,-0.019,53.72169351577759,0.03692767396569252,0.020015709102153778,0.4967556595802307,,,,,,,,0.589394979781796,0.5372091248950942,0.5747768368047608,0.6032806897077897,93200.0,91500.0,93800.0,92600.0,53.72169351577759,0.8953383688105593,0.029144731822690166,0.012527656977187763,0.8953383688105593,-0.064,0.26,8.39619,53.72169351577759,0.034,0.021,0.454,0.0,0.0,-0.0013837706064805388,0.9999990463256836,-0.0027675421,0.0,0.0,0.0,0.0,0.342,0.0,0.0,0.011,53.72169351577759,3.615000009536743,False,True,False,True,True,False,False
104,1.04,0.036,0.019,0.497,-0.01660524681210518,-0.004151311703026295,0.0027675412129610777,0.9998496770858765,0.005672339,-0.008209556,-0.033235718,0.023,-0.033,0.303,0.004,-0.039,-0.001,53.7418372631073,0.037475600838661194,0.019565749913454056,0.5013626217842102,,,,,,,,0.5908903639276722,0.5458762493324177,0.5625085831998169,0.5717555504692149,94300.0,90600.0,94300.0,91200.0,53.7418372631073,0.5241626611734188,0.005233844510566872,0.010605020218204014,0.5241626611734188,-0.054,0.326,8.56119,53.7418372631073,0.034,0.021,0.46,0.0,0.0,-0.0,1.0,0.0,0.0,0.0,0.0,0.0,0.313,0.0,0.0,0.01,53.7418372631073,3.615000009536743,False,True,False,True,True,False,False
105,1.05,0.036,0.019,0.497,-0.01660524681210518,-0.004151311703026295,0.0027675412129610777,0.9998496770858765,0.005672339,-0.008209556,-0.033235718,0.023,-0.033,0.303,0.004,-0.039,-0.001,53.7418372631073,0.037475600838661194,0.019565749913454056,0.5013626217842102,,,,,,,,0.5908903639276722,0.5458762493324177,0.5625085831998169,0.5717555504692149,94300.0,90600.0,94300.0,91200.0,53.7418372631073,0.5241626611734188,0.005233844510566872,0.010605020218204014,0.5241626611734188,-0.054,0.326,8.56119,53.7418372631073,0.034,0.021,0.46,0.0,0.0,-0.0,1.0,0.0,0.0,0.0,0.0,0.0,0.313,0.0,0.0,0.01,53.7418372631073,3.615000009536743,False,True,False,True,True,False,False
106,1.06,0.036,0.019,0.5,-0.01660524681210518,-0.004151311703026295,0.0027675412129610777,0.9998496770858765,0.005672339,-0.008209556,-0.033235718,0.025,-0.029,0.287,0.021,-0.03,0.006,53.751957654953,0.03775857388973236,0.019292399287223816,0.503447413444519,,,,,,,,0.5929961089494163,0.5356832227054246,0.5694666971847104,0.5862516212710766,93500.0,90600.0,94300.0,92000.0,53.751957654953,0.5241626611734188,0.005233844510566872,0.010605020218204014,0.5241626611734188,-0.069,0.295,8.48619,53.751957654953,0.034,0.021,0.463,0.0,0.0,-0.0,1.0,0.0,0.0,0.0,0.0,0.0,0.298,0.0,0.0,0.01,53.751957654953,3.615000009536743,False,True,False,True,True,False,False
107,1.07,0.037,0.018,0.503,-0.01660524681210518,-0.004151311703026295,0.0027675412129610777,0.9998496770858765,0.005672339,-0.008209556,-0.033235718,0.023,-0.023,0.269,0.07,-0.047,0.012,53.77319955825806,0.03821764513850212,0.018872153013944626,0.507445216178894,,,,,,,,0.5719081406881819,0.57611963073167,0.6076752880140383,0.5607995727473869,94900.0,92300.0,94900.0,93500.0,53.77319955825806,0.7191882200350957,0.026169222552834364,0.00857557030594339,0.7191882200350957,-0.1,0.224,8.690190000000001,53.77319955825806,0.034,0.021,0.469,0.0,0.0,-0.0,1.0,0.0,0.0,0.0,0.0,0.0,0.269,0.0,0.0,0.009,53.77319955825806,3.615000009536743,False,True,False,True,True,False,False
108,1.08,0.037,0.018,0.503,-0.01660524681210518,-0.004151311703026295,0.0027675412129610777,0.9998496770858765,0.005672339,-0.008209556,-0.033235718,0.023,-0.023,0.269,0.07,-0.047,0.012,53.77319955825806,0.03821764513850212,0.018872153013944626,0.507445216178894,,,,,,,,0.5719081406881819,0.57611963073167,0.6076752880140383,0.5607995727473869,94900.0,92300.0,94900.0,93500.0,53.77319955825806,0.7191882200350957,0.026169222552834364,0.00857557030594339,0.7191882200350957,-0.1,0.224,8.690190000000001,53.77319955825806,0.034,0.021,0.469,0.0,0.0,-0.0,1.0,0.0,0.0,0.0,0.0,0.0,0.269,0.0,0.0,0.009,53.77319955825806,3.615000009536743,False,True,False,True,True,False,False
109,1.09,0.037,0.018,0.506,-0.01660524681210518,-0.004151311703026295,0.0027675412129610777,0.9998496770858765,0.005672339,-0.008209556,-0.033235718,0.022,-0.02,0.257,0.05,-0.012,0.006,53.78156042098999,0.0385412871837616,0.018750566989183426,0.5090810656547546,,,,,,,,0.5761806668192568,0.5357442587930114,0.5824063477531091,0.5810330357824064,94600.0,92600.0,94300.0,93500.0,53.78156042098999,0.2558022430762188,0.005523765926604105,0.009109636072327764,0.2558022430762188,-0.048,0.23,8.67919,53.78156042098999,0.034,0.021,0.472,0.0,0.0,-0.0,1.0,0.0,0.0,0.0,0.0,0.0,0.254,0.0,0.0,0.008,53.78156042098999,3.615000009536743,False,True,False,True,True,False,False
110,1.1,0.038,0.018,0.502,-0.015221476554870605,-0.005535082425922155,0.0027675412129610777,0.9998649954795837,0.005703214,-0.010984639,-0.030476034,0.021,-0.014,0.189,0.059,-0.0,0.0,53.80144286155701,0.03929269686341286,0.018878448754549026,0.5126612186431885,,,,,,,,0.6448767833981842,0.5922026398107881,0.6218051422903792,0.6390173189898527,93500.0,91700.0,94600.0,92600.0,53.80144286155701,0.34093232623788816,0.016189822232394905,0.008133058670939193,0.34093232623788816,-0.069,0.252,8.62119,53.80144286155701,0.034,0.021,0.476,0.0,0.0,-0.0,1.0,0.0,0.0,0.0,0.0,0.0,0.226,0.0,0.0,0.007,53.80144286155701,3.63100004196167,False,True,False,True,True,False,False
111,1.11,0.038,0.018,0.502,-0.015221476554870605,-0.005535082425922155,0.0027675412129610777,0.9998649954795837,0.005703214,-0.010984639,-0.030476034,0.021,-0.014,0.189,0.059,-0.0,0.0,53.80144286155701,0.03929269686341286,0.018878448754549026,0.5126612186431885,,,,,,,,0.6448767833981842,0.5922026398107881,0.6218051422903792,0.6390173189898527,93500.0,91700.0,94600.0,92600.0,53.80144286155701,0.34093232623788816,0.016189822232394905,0.008133058670939193,0.34093232623788816,-0.069,0.252,8.62119,53.80144286155701,0.034,0.021,0.476,0.0,0.0,-0.0,1.0,0.0,0.0,0.0,0.0,0.0,0.226,0.0,0.0,0.007,53.80144286155701,3.63100004196167,False,True,False,True,True,False,False
112,1.12,0.038,0.018,0.51,-0.015221476554870605,-0.005535082425922155,0.0027675412129610777,0.9998649954795837,0.005703214,-0.010984639,-0.030476034,0.01,-0.003,0.204,0.094,-0.026,-0.005,53.81665086746216,0.039196379482746124,0.018629226833581924,0.51361483335495,,,,,,,,0.5713893339436942,0.5838406958113985,0.6240329594872969,0.5793545433737698,94600.0,92000.0,96800.0,94600.0,53.81665086746216,0.8660410467689021,0.03292896925307088,0.008529793240253299,0.8660410467689021,-0.103,0.256,8.70819,53.81665086746216,0.034,0.021,0.479,0.0,0.0,-0.0,1.0,0.0,0.0,0.0,0.0,0.0,0.213,0.0,0.0,0.007,53.81665086746216,3.63100004196167,False,True,False,True,True,False,False
113,1.1300000000000001,0.038,0.017,0.512,-0.015221476554870605,-0.005535082425922155,0.0027675412129610777,0.9998649954795837,0.005703214,-0.010984639,-0.030476034,0.008,-0.002,0.193,0.123,0.003,0.007,53.82080554962158,0.039196379482746124,0.018629226833581924,0.51361483335495,,,,,,,,0.5982452124818799,0.5717250324254215,0.6027924010070954,0.586831464103151,94000.0,92000.0,95500.0,94000.0,53.82080554962158,0.9528953994048981,-0.022186617837796598,0.008651865415426872,0.9528953994048981,-0.124,0.273,8.85519,53.82080554962158,0.034,0.021,0.481,0.0,0.0,-0.0,1.0,0.0,0.0,0.0,0.0,0.0,0.199,0.0,0.0,0.006,53.82080554962158,3.63100004196167,False,True,False,True,True,False,False
114,1.1400000000000001,0.039,0.018,0.515,-0.013837706297636032,-0.005535082425922155,0.0027675412129610777,0.999885082244873,0.0056880065,-0.010992521,-0.027708089,0.009,0.006,0.174,0.114,0.063,0.005,53.84118032455444,0.039938054978847504,0.01879267208278179,0.5174649357795715,,,,,,,,0.5920500495918212,0.5568322270542458,0.6059967956054017,0.6039215686274509,96200.0,92000.0,96800.0,92600.0,53.84118032455444,0.9680628671702144,0.03530937666895552,0.010177767605096514,0.9680628671702144,-0.09,0.168,8.86219,53.84118032455444,0.034,0.021,0.484,0.0,0.0,-0.0,1.0,0.0,0.0,0.0,0.0,0.0,0.173,0.0,0.0,0.005,53.84118032455444,3.621000051498413,False,True,False,True,True,False,False
115,1.1500000000000001,0.039,0.018,0.515,-0.013837706297636032,-0.005535082425922155,0.0027675412129610777,0.999885082244873,0.0056880065,-0.010992521,-0.027708089,0.009,0.006,0.174,0.114,0.063,0.005,53.84118032455444,0.039938054978847504,0.01879267208278179,0.5174649357795715,,,,,,,,0.5920500495918212,0.5568322270542458,0.6059967956054017,0.6039215686274509,96200.0,92000.0,96800.0,92600.0,53.84118032455444,0.9680628671702144,0.03530937666895552,0.010177767605096514,0.9680628671702144,-0.09,0.168,8.86219,53.84118032455444,0.034,0.021,0.484,0.0,0.0,-0.0,1.0,0.0,0.0,0.0,0.0,0.0,0.173,0.0,0.0,0.005,53.84118032455444,3.621000051498413,False,True,False,True,True,False,False
116,1.16,0.039,0.018,0.515,-0.013837706297636032,-0.005535082425922155,0.0027675412129610777,0.999885082244873,0.0056880065,-0.010992521,-0.027708089,0.009,0.008,0.15,0.145,0.047,-0.004,53.851253509521484,0.04020138084888458,0.018833592534065247,0.5184471607208252,,,,,,,,0.6244602121004044,0.6083161669336995,0.6273899443045701,0.6160677500572214,96200.0,92900.0,97100.0,95200.0,53.851253509521484,0.9656366826886397,0.02993820096131838,0.006759746700236515,0.9656366826886397,-0.052,0.241,8.927190000000001,53.851253509521484,0.034,0.021,0.486,0.0,0.0,-0.0,1.0,0.0,0.0,0.0,0.0,0.0,0.161,0.0,0.0,0.005,53.851253509521484,3.621000051498413,False,True,False,True,True,False,False
117,1.17,0.039,0.018,0.516,-0.012453935109078884,-0.004151311703026295,0.0027675412129610777,0.9999099969863892,0.0056382054,-0.008233036,-0.024932034,0.008,0.01,0.141,0.157,0.023,0.023,53.86154103279114,0.04045704007148743,0.01890125498175621,0.5193657279014587,,,,,,,,0.6230411230640116,0.5706416418707561,0.6179140917067216,0.6194705119401847,96800.0,93800.0,96200.0,94300.0,53.86154103279114,0.47925535973144123,0.016403448538948654,0.0075379568169680325,0.47925535973144123,-0.07,0.244,9.052190000000001,53.86154103279114,0.034,0.021,0.487,0.0,0.0,-0.0,1.0,0.0,0.0,0.0,0.0,0.0,0.148,0.0,0.0,0.005,53.86154103279114,3.621000051498413,False,True,False,True,True,False,False
118,1.18,0.039,0.018,0.518,-0.012453935109078884,-0.004151311703026295,0.0027675412129610777,0.9999099969863892,0.0056382054,-0.008233036,-0.024932034,0.011,0.011,0.136,0.175,0.045,0.004,53.872068881988525,0.040591929107904434,0.01896524429321289,0.5203143358230591,,,,,,,,0.6223544670786603,0.5716945143816281,0.603768978408484,0.6167696650644694,97100.0,93500.0,96800.0,94600.0,53.872068881988525,0.5875028610666057,0.011184863050278477,0.011627374685282674,0.5875028610666057,-0.056,0.204,9.13419,53.872068881988525,0.034,0.021,0.489,0.0,0.0,-0.0,1.0,0.0,0.0,0.0,0.0,0.0,0.136,0.0,0.0,0.004,53.872068881988525,3.615000009536743,False,True,False,True,True,False,False
119,1.19,0.039,0.018,0.52,-0.01107016485184431,-0.004151311703026295,0.0027675412129610777,0.9999262690544128,0.0056268065,-0.00824083,-0.022164242,0.008,0.016,0.129,0.165,0.047,-0.01,53.881206035614014,0.04079155996441841,0.019078724086284637,0.5211526155471802,,,,,,,,0.6110933089188983,0.5579003585870146,0.6113069352254521,0.6327611200122072,99000.0,93800.0,96500.0,95200.0,53.881206035614014,0.5342183566033417,0.01568627450980392,0.009704737926298924,0.5342183566033417,-0.068,0.188,9.200190000000001,53.881206035614014,0.034,0.021,0.49,0.0,0.0,-0.0,1.0,0.0,0.0,0.0,0.0,0.0,0.125,0.0,0.0,0.004,53.881206035614014,3.615000009536743,False,True,False,True,True,False,False
120,1.2,0.04,0.018,0.513,-0.009686394594609737,-0.004151311703026295,0.0027675412129610777,0.9999406337738037,0.0056153964,-0.008248609,-0.019396493,0.01,0.011,0.079,0.155,0.004,0.0,53.89132523536682,0.04109479486942291,0.019211556762456894,0.5218029022216797,,,,,,,,0.6555580987258717,0.6621805142290379,0.6809491111619745,0.6380712596322575,99000.0,94300.0,95200.0,96200.0,53.89132523536682,0.43651483939879454,0.01297016861219196,0.008728160524910353,0.43651483939879454,-0.102,0.151,9.209190000000001,53.89132523536682,0.034,0.021,0.491,0.0,0.0,-0.0,1.0,0.0,0.0,0.0,0.0,0.0,0.114,0.0,0.0,0.003,53.89132523536682,3.615000009536743,False,True,False,True,True,False,False
121,1.21,0.04,0.018,0.513,-0.009686394594609737,-0.004151311703026295,0.0027675412129610777,0.9999406337738037,0.0056153964,-0.008248609,-0.019396493,0.007,0.018,0.073,0.14,0.001,0.002,53.90149688720703,0.041047364473342896,0.019266363233327866,0.5225299596786499,,,,,,,,0.6602273594262608,0.6239414053559167,0.6780498970016022,0.6780193789578088,99000.0,96500.0,98700.0,97100.0,53.90149688720703,0.7522087434195468,-0.0031128404669260703,0.008117799649042497,0.7522087434195468,-0.036,0.164,9.35919,53.90149688720703,0.034,0.021,0.492,0.0,0.0,-0.0,1.0,0.0,0.0,0.0,0.0,0.0,0.103,0.0,0.0,0.003,53.90149688720703,3.615000009536743,False,True,False,True,True,False,False
122,1.22,0.04,0.018,0.52,-0.00830262340605259,-0.004151311703026295,0.0027675412129610777,0.9999530911445618,0.0056039765,-0.008256372,-0.01662878,0.012,0.016,0.103,0.157,0.022,-0.006,53.91111636161804,0.041528478264808655,0.01967526227235794,0.5235745310783386,,,,,,,,0.6496833752956436,0.5978332188906691,0.6016784924086366,0.6226443884946975,101000.0,97700.0,100000.0,97100.0,53.91111636161804,0.7522087434195468,-0.0031128404669260703,0.008117799649042497,0.7522087434195468,-0.035,0.158,9.75619,53.91111636161804,0.034,0.021,0.493,0.0,0.0,-0.0,1.0,0.0,0.0,0.0,0.0,0.0,0.094,0.0,0.0,0.003,53.91111636161804,3.5999999046325684,False,True,False,True,True,False,False
123,1.23,0.04,0.019,0.521,-0.00830262340605259,-0.004151311703026295,0.0027675412129610777,0.9999530911445618,0.0056039765,-0.008256372,-0.01662878,0.009,0.023,0.101,0.147,0.029,0.003,53.92152738571167,0.041528478264808655,0.01967526227235794,0.5235745310783386,,,,,,,,0.6261692225528344,0.5841763942931258,0.6236972610055695,0.6262607766842145,101000.0,96200.0,99700.0,98700.0,53.92152738571167,0.1991302357518883,0.03588921950102998,0.006408789196612497,0.1991302357518883,-0.042,0.143,9.876190000000001,53.92152738571167,0.034,0.021,0.494,0.0,0.0,-0.0,1.0,0.0,0.0,0.0,0.0,0.0,0.084,0.0,0.0,0.002,53.92152738571167,3.5999999046325684,False,True,False,True,True,False,False
124,1.24,0.041,0.019,0.514,-0.006918853148818016,-0.0027675412129610777,0.0027675412129610777,0.999968409538269,0.0055733174,-0.0054966393,-0.01385324,0.014,0.024,0.068,0.114,0.039,0.015,53.931288957595825,0.04172058403491974,0.019853821024298668,0.5247175693511963,,,,,,,,0.6697795071335927,0.6125886930647746,0.6655680170901045,0.6815594720378424,100700.0,95500.0,100000.0,98700.0,53.931288957595825,0.45860990310521094,0.009735255970092317,0.010833905546654459,0.45860990310521094,0.019,0.085,9.73419,53.931288957595825,0.034,0.021,0.495,0.0,0.0,-0.0,1.0,0.0,0.0,0.0,0.0,0.0,0.075,0.0,0.0,0.002,53.931288957595825,3.5999999046325684,False,True,False,True,True,False,False
125,1.25,0.041,0.019,0.522,-0.006918853148818016,-0.0027675412129610777,0.0027675412129610777,0.999968409538269,0.0055733174,-0.0054966393,-0.01385324,0.005,0.025,0.095,0.148,-0.017,0.001,53.9411838054657,0.04168343544006348,0.01997961476445198,0.5253214836120605,,,,,,,,0.6567177843900206,0.604318303196765,0.618295567254139,0.6311436636911574,100000.0,96200.0,100300.0,97400.0,53.9411838054657,0.9795681696803235,0.04628061341268025,0.007812619211108568,0.9795681696803235,0.002,0.121,9.668190000000001,53.9411838054657,0.034,0.021,0.496,0.0,0.0,-0.0,1.0,0.0,0.0,0.0,0.0,0.0,0.066,0.0,0.0,0.002,53.9411838054657,3.5999999046325684,False,True,False,True,True,False,False
126,1.26,0.041,0.019,0.524,-0.005535082425922155,-0.0027675412129610777,0.0027675412129610777,0.9999769926071167,0.0055657057,-0.005504346,-0.011085624,0.005,0.026,0.097,0.171,-0.036,0.0,53.95256948471069,0.04182162508368492,0.020210422575473785,0.5260878205299377,,,,,,,,0.6141603723201343,0.605676356145571,0.621210040436408,0.5944762340733959,99300.0,96200.0,99700.0,97100.0,53.95256948471069,0.6695353627832455,0.008163576714732586,0.01121538109407187,0.6695353627832455,-0.002,0.119,9.735190000000001,53.95256948471069,0.034,0.021,0.496,0.0,0.0,-0.0,1.0,0.0,0.0,0.0,0.0,0.0,0.059,0.0,0.0,0.002,53.95256948471069,3.615000009536743,False,True,False,True,True,False,False
127,1.27,0.041,0.019,0.525,-0.005535082425922155,-0.0027675412129610777,0.0027675412129610777,0.9999769926071167,0.0055657057,-0.005504346,-0.011085624,0.006,0.027,0.096,0.165,-0.016,0.018,53.96135115623474,0.04182162508368492,0.020210422575473785,0.5260878205299377,,,,,,,,0.6253452353704128,0.5680933852140078,0.6126497291523614,0.6211947814145113,98000.0,96800.0,99000.0,96200.0,53.96135115623474,0.8745860990310521,0.01863126573586633,0.008087281605249104,0.8745860990310521,-0.044,0.068,9.71219,53.96135115623474,0.034,0.021,0.497,0.0,0.0,-0.0,1.0,0.0,0.0,0.0,0.0,0.0,0.051,0.0,0.0,0.001,53.96135115623474,3.615000009536743,False,True,False,True,True,False,False
128,1.28,0.041,0.02,0.526,-0.004151311703026295,-0.004151311703026295,0.0027675412129610777,0.9999789595603943,0.0055696527,-0.008279566,-0.008325808,0.003,0.032,0.098,0.149,-0.002,0.01,53.97281837463379,0.042339421808719635,0.02078026346862316,0.5275532603263855,,,,,,,,0.6077973601892118,0.5760585946440833,0.6178988326848249,0.6060578316929884,99000.0,95800.0,99300.0,95800.0,53.97281837463379,0.3484245059891661,0.03726253147173266,0.014221408407721065,0.3484245059891661,-0.056,0.017,9.61719,53.97281837463379,0.034,0.021,0.497,0.0,0.0,-0.0,1.0,0.0,0.0,0.0,0.0,0.0,0.044,0.0,0.0,0.001,53.97281837463379,3.615000009536743,False,True,False,True,True,False,False
129,1.29,0.041,0.02,0.523,-0.004151311703026295,-0.004151311703026295,0.0027675412129610777,0.9999789595603943,0.0055696527,-0.008279566,-0.008325808,0.006,0.026,0.076,0.144,0.059,-0.007,53.981539487838745,0.04262242466211319,0.021091973409056664,0.5285027623176575,,,,,,,,0.6546272983901732,0.6038147554741741,0.6179751277943084,0.6365606164644846,99000.0,94300.0,99000.0,96200.0,53.981539487838745,0.10072480354009308,-0.00018310826276035706,0.010009918364232854,0.10072480354009308,-0.043,0.029,9.47819,53.981539487838745,0.034,0.021,0.498,0.0,0.0,-0.0,1.0,0.0,0.0,0.0,0.0,0.0,0.038,0.0,0.0,0.001,53.981539487838745,3.615000009536743,False,True,False,True,True,False,False
130,1.3,0.041,0.02,0.523,-0.0027675412129610777,-0.004151311703026295,0.0027675412129610777,0.9999837279319763,0.00555819,-0.008287265,-0.00555819,0.004,0.032,0.073,0.165,0.073,0.001,53.99140906333923,0.04252691566944122,0.021275756880640984,0.52881920337677,,,,,,,,0.6571297779812314,0.6148622873273824,0.6198977645532922,0.624933241779202,100300.0,94600.0,99000.0,99000.0,53.99140906333923,0.8305027847714962,0.03527885862516213,0.012008850232700085,0.8305027847714962,-0.011,0.059,9.52419,53.99140906333923,0.034,0.021,0.498,0.0,0.0,-0.0,1.0,0.0,0.0,0.0,0.0,0.0,0.032,0.0,0.0,0.001,53.99140906333923,3.6050000190734863,False,True,False,True,True,False,False
131,1.31,0.041,0.02,0.526,-0.0013837706064805388,-0.0027675412129610777,0.0027675412129610777,0.9999913573265076,0.005542807,-0.005527403,-0.002782882,0.005,0.027,0.081,0.163,-0.024,-0.021,54.00161600112915,0.04283585026860237,0.021604295819997787,0.5294281840324402,,,,,,,,0.6173647669184406,0.6215762569619288,0.6297245746547646,0.6007934691386282,99700.0,96200.0,99000.0,97700.0,54.00161600112915,0.07591363393606469,0.03445487144274052,0.008773937590600443,0.07591363393606469,-0.016,0.034,9.66619,54.00161600112915,0.034,0.021,0.498,0.0,0.0,-0.0,1.0,0.0,0.0,0.0,0.0,0.0,0.027,0.0,0.0,0.0,54.00161600112915,3.6050000190734863,False,True,False,True,True,False,False
132,1.32,0.042,0.021,0.528,-0.0013837706064805388,-0.0027675412129610777,0.0027675412129610777,0.9999913573265076,0.005542807,-0.005527403,-0.002782882,0.003,0.033,0.083,0.138,-0.094,0.004,54.01643347740173,0.0428549125790596,0.021821171045303345,0.5300068259239197,,,,,,,,0.6021515220874342,0.6035248340581368,0.6399328603036545,0.5987640192263676,99000.0,97100.0,100000.0,95500.0,54.01643347740173,0.07591363393606469,0.03445487144274052,0.008773937590600443,0.07591363393606469,0.005,-0.032,9.626190000000001,54.01643347740173,0.034,0.021,0.499,0.0,0.0,-0.0,1.0,0.0,0.0,0.0,0.0,0.0,0.022,0.0,0.0,0.0,54.01643347740173,3.6050000190734863,False,True,False,True,True,False,False
133,1.33,0.042,0.021,0.521,-0.0,-0.0027675412129610777,0.0027675412129610777,0.999992311000824,0.005535153,-0.0055350685,-1.5318803e-05,0.004,0.027,0.049,0.096,0.068,-0.01,54.024458169937134,0.0428549125790596,0.021821171045303345,0.5300068259239197,,,,,,,,0.6922560463874265,0.6035400930800335,0.6375371938658732,0.7008010986495765,98700.0,96800.0,99000.0,95200.0,54.024458169937134,0.4399786373693446,-0.03341725795376516,0.008377203021286335,0.4399786373693446,-0.039,-0.034,9.59319,54.024458169937134,0.034,0.021,0.499,0.0,0.0,-0.0,1.0,0.0,0.0,0.0,0.0,0.0,0.018,0.0,0.0,0.0,54.024458169937134,3.6050000190734863,False,True,False,True,True,False,False
134,1.34,0.042,0.021,0.526,-0.0,-0.0027675412129610777,0.0027675412129610777,0.999992311000824,0.005535153,-0.0055350685,-1.5318803e-05,0.002,0.032,0.063,0.107,0.071,0.007,54.031293630599976,0.04320133849978447,0.022502392530441284,0.5313746929168701,,,,,,,,0.646494239719234,0.623575188830396,0.645792324711986,0.6275730525673304,100300.0,96500.0,99000.0,99000.0,54.031293630599976,0.5834744792858778,0.08752574959945067,0.007629510948348211,0.5834744792858778,-0.025,-0.05,9.626190000000001,54.031293630599976,0.034,0.021,0.499,0.0,0.0,-0.0,1.0,0.0,0.0,0.0,0.0,0.0,0.014,0.0,0.0,0.0,54.031293630599976,3.5940001010894775,False,True,False,True,True,False,False
135,1.35,0.042,0.022,0.53,0.0013837706064805388,-0.0027675412129610777,0.0027675412129610777,0.9999913573265076,0.0055274884,-0.005542722,0.0027522442,0.0,0.027,0.076,0.109,-0.02,0.008,54.053192138671875,0.04336198419332504,0.02292565628886223,0.5323361754417419,,,,,,,,0.6368657969024185,0.6034790569924467,0.619501029983978,0.6127260242618449,100700.0,97100.0,100000.0,97400.0,54.053192138671875,0.20576791027695124,-0.022796978713664453,0.007309071488517586,0.20576791027695124,-0.046,-0.054,9.866190000000001,54.053192138671875,0.034,0.021,0.499,0.0,0.0,-0.0,1.0,0.0,0.0,0.0,0.0,0.0,0.008,0.0,0.0,0.0,54.053192138671875,3.5940001010894775,False,True,False,True,True,False,False
136,1.36,0.042,0.022,0.53,0.0013837706064805388,-0.0027675412129610777,0.0027675412129610777,0.9999913573265076,0.0055274884,-0.005542722,0.0027522442,0.0,0.027,0.076,0.109,-0.02,0.008,54.053192138671875,0.04336198419332504,0.02292565628886223,0.5323361754417419,,,,,,,,0.6368657969024185,0.6034790569924467,0.619501029983978,0.6127260242618449,100700.0,97100.0,100000.0,97400.0,54.053192138671875,0.20576791027695124,-0.022796978713664453,0.007309071488517586,0.20576791027695124,-0.046,-0.054,9.866190000000001,54.053192138671875,0.034,0.021,0.499,0.0,0.0,-0.0,1.0,0.0,0.0,0.0,0.0,0.0,0.008,0.0,0.0,0.0,54.053192138671875,3.5940001010894775,False,True,False,True,True,False,False
137,1.37,0.042,0.022,0.531,0.0013837706064805388,-0.0027675412129610777,0.0027675412129610777,0.9999913573265076,0.0055274884,-0.005542722,0.0027522442,0.005,0.028,0.078,0.1,0.032,0.0,54.065086126327515,0.04336198419332504,0.02292565628886223,0.5323361754417419,,,,,,,,0.6197299153124285,0.5785305561913482,0.6284275577935454,0.6343480582894636,101000.0,97700.0,100000.0,98000.0,54.065086126327515,0.24539559014267184,-0.01634241245136187,0.010009918364232854,0.24539559014267184,-0.02,-0.066,9.82019,54.065086126327515,0.034,0.021,0.499,0.0,0.0,-0.0,1.0,0.0,0.0,0.0,0.0,0.0,0.006,0.0,0.0,0.0,54.065086126327515,3.5940001010894775,False,True,False,True,True,False,False
138,1.3800000000000001,0.043,0.022,0.524,0.0027675412129610777,-0.0027675412129610777,0.0027675412129610777,0.9999884963035583,0.0055198134,-0.0055503654,0.0055198134,0.007,0.018,0.042,0.078,0.014,0.009,54.07364511489868,0.04368721321225166,0.023439140990376472,0.5335932970046997,,,,,,,,0.6855115587090868,0.6533760585946441,0.6669565880827039,0.6545967803463798,101000.0,96500.0,100700.0,98000.0,54.07364511489868,0.5077897306782635,0.030411230640115968,0.007934691386282139,0.5077897306782635,0.0,-0.098,9.69719,54.07364511489868,0.034,0.021,0.499,0.0,0.0,-0.0,1.0,0.0,0.0,0.0,0.0,0.0,0.004,0.0,0.0,0.0,54.07364511489868,3.572999954223633,False,True,False,True,True,False,False
139,1.3900000000000001,0.043,0.022,0.524,0.0027675412129610777,-0.0013837706064805388,0.0027675412129610777,0.9999913573265076,0.0055274246,-0.0027828394,0.0055274246,0.007,0.017,0.041,0.041,-0.019,-0.021,54.081411838531494,0.04378148913383484,0.0237413439899683,0.5340526700019836,,,,,,,,0.6671396963454642,0.6413519493400474,0.6772106507972839,0.6802929732204166,103100.0,98700.0,101400.0,100000.0,54.081411838531494,0.27005416952773326,0.018875410086213473,0.01168841077286946,0.27005416952773326,0.002,-0.126,9.82219,54.081411838531494,0.034,0.021,0.499,0.0,0.0,-0.0,1.0,0.0,0.0,0.0,0.0,0.0,0.002,0.0,0.0,0.0,54.081411838531494,3.572999954223633,False,True,False,True,True,False,False
140,1.4000000000000001,0.043,0.022,0.531,0.004151311703026295,-0.0013837706064805388,0.0027675412129610777,0.9999865889549255,0.005523569,-0.0027904857,0.00829498,0.011,0.013,0.078,-0.01,-0.006,-0.011,54.09117555618286,0.043759554624557495,0.02385685406625271,0.5345361232757568,,,,,,,,0.6296787975890745,0.5687037460898756,0.6271763179980163,0.655741206988632,102000.0,99700.0,101700.0,99000.0,54.09117555618286,0.6238345922026398,0.0018310826276035706,0.0063935301747158006,0.6238345922026398,-0.021,-0.135,10.05719,54.09117555618286,0.034,0.021,0.499,0.0,0.0,-0.0,1.0,0.0,0.0,0.0,0.0,0.0,0.001,0.0,0.0,0.0,54.09117555618286,3.572999954223633,False,True,False,True,True,False,False
141,1.41,0.043,0.023,0.533,0.004151311703026295,-0.0013837706064805388,0.0027675412129610777,0.9999865889549255,0.005523569,-0.0027904857,0.00829498,0.01,0.012,0.083,-0.039,-0.02,-0.005,54.101308822631836,0.043904855847358704,0.024096405133605003,0.5351887345314026,,,,,,,,0.615182726787213,0.5628442816815442,0.6316929884794384,0.6479591058213169,102000.0,99000.0,101000.0,99300.0,54.101308822631836,0.8029449912260624,0.030945296406500344,0.008514534218356603,0.8029449912260624,-0.026,-0.155,10.142190000000001,54.101308822631836,0.034,0.021,0.499,0.0,0.0,-0.0,1.0,0.0,0.0,0.0,0.0,0.0,0.001,0.0,0.0,0.0,54.101308822631836,3.572999954223633,False,True,False,True,True,False,False
142,1.42,0.043,0.023,0.527,0.004151311703026295,-0.0013837706064805388,0.0027675412129610777,0.9999865889549255,0.005523569,-0.0027904857,0.00829498,0.01,0.006,0.072,-0.047,-0.038,0.007,54.11131453514099,0.04398664832115173,0.024319300428032875,0.5358110666275024,,,,,,,,0.6565499351491569,0.6117799649042497,0.6477607385366598,0.6458381017776761,101400.0,97100.0,99300.0,98700.0,54.11131453514099,0.29373617151140613,0.0486305027847715,0.009536888685435264,0.29373617151140613,0.006,-0.129,9.995190000000001,54.11131453514099,0.034,0.021,0.499,0.0,0.0,-0.0,1.0,0.0,0.0,0.0,0.0,0.0,0.0,0.0,0.0,0.0,54.11131453514099,3.5940001010894775,False,True,False,True,True,False,False
143,1.43,0.043,0.023,0.528,0.0027675412129610777,-0.0027675412129610777,0.0027675412129610777,0.9999884963035583,0.0055198134,-0.0055503654,0.0055198134,0.009,0.012,0.074,-0.02,-0.067,0.0,54.12426972389221,0.04398664832115173,0.024319300428032875,0.5358110666275024,,,,,,,,0.6300755321583886,0.6366979476615549,0.6663309681849393,0.6188143739986267,101400.0,97400.0,100300.0,99000.0,54.12426972389221,0.965117875944152,0.00933852140077821,0.01223773556115053,0.965117875944152,-0.006,-0.121,9.88519,54.12426972389221,0.034,0.021,0.499,0.0,0.0,-0.0,1.0,0.0,0.0,0.0,0.0,0.0,0.0,0.0,0.0,0.0,54.12426972389221,3.5940001010894775,False,True,False,True,True,False,False
144,1.44,0.043,0.023,0.532,0.0027675412129610777,-0.0027675412129610777,0.0027675412129610777,0.9999884963035583,0.0055198134,-0.0055503654,0.0055198134,0.013,0.01,0.089,-0.017,-0.06,-0.023,54.13256359100342,0.04411909356713295,0.024781379848718643,0.5371130108833313,,,,,,,,0.6313267719539177,0.5978789959563592,0.6125886930647746,0.6199130235751888,100700.0,97100.0,101400.0,97100.0,54.13256359100342,0.32391851682307166,0.030670634012359806,0.010681315327687495,0.32391851682307166,0.013,-0.119,9.89919,54.13256359100342,0.034,0.021,0.5,0.0,0.0,0.0,1.0,0.0,0.0,0.0,0.0,0.0,0.0,0.0,0.0,0.0,54.13256359100342,3.5940001010894775,False,True,False,True,True,False,False
145,1.45,0.043,0.024,0.535,0.0027675412129610777,-0.0027675412129610777,0.0027675412129610777,0.9999884963035583,0.0055198134,-0.0055503654,0.0055198134,0.014,0.01,0.097,-0.003,-0.011,-0.015,54.14147901535034,0.044269271194934845,0.025089696049690247,0.5377692580223083,,,,,,,,0.621362630655375,0.5769893949797817,0.5988097962920577,0.6123598077363241,99300.0,96200.0,99300.0,98400.0,54.14147901535034,0.5492484931715877,0.027832455939574275,0.008133058670939193,0.5492484931715877,-0.054,-0.114,9.847190000000001,54.14147901535034,0.034,0.021,0.5,0.0,0.0,-0.0,1.0,0.0,0.0,0.0,0.0,0.0,0.0,0.0,0.0,0.0,54.14147901535034,3.5940001010894775,False,True,False,True,True,False,False
146,1.46,0.043,0.024,0.534,0.0027675412129610777,-0.0027675412129610777,0.0027675412129610777,0.9999884963035583,0.0055198134,-0.0055503654,0.0055198134,0.01,0.013,0.083,-0.011,-0.048,0.018,54.16205978393555,0.044529639184474945,0.02554435282945633,0.5392173528671265,,,,,,,,0.6186617837796597,0.6041657129777981,0.643076218814374,0.6044098573281452,99000.0,94900.0,98400.0,97100.0,54.16205978393555,0.07618829633020524,-0.01185626001373312,0.013122758831158923,0.07618829633020524,-0.037,-0.092,9.49719,54.16205978393555,0.034,0.021,0.5,0.0,0.0,-0.0,1.0,0.0,0.0,0.0,0.0,0.0,0.0,0.0,0.0,0.0,54.16205978393555,3.621000051498413,False,True,False,True,True,False,False
147,1.47,0.043,0.024,0.534,0.0027675412129610777,-0.0027675412129610777,0.0027675412129610777,0.9999884963035583,0.0055198134,-0.0055503654,0.0055198134,0.01,0.013,0.083,-0.011,-0.048,0.018,54.16205978393555,0.044529639184474945,0.02554435282945633,0.5392173528671265,,,,,,,,0.6186617837796597,0.6041657129777981,0.643076218814374,0.6044098573281452,99000.0,94900.0,98400.0,97100.0,54.16205978393555,0.07618829633020524,-0.01185626001373312,0.013122758831158923,0.07618829633020524,-0.037,-0.092,9.49719,54.16205978393555,0.034,0.021,0.5,0.0,0.0,-0.0,1.0,0.0,0.0,0.0,0.0,0.0,0.0,0.0,0.0,0.0,54.16205978393555,3.621000051498413,False,True,False,True,True,False,False
148,1.48,0.044,0.025,0.536,0.0027675412129610777,-0.0027675412129610777,0.0027675412129610777,0.9999884963035583,0.0055198134,-0.0055503654,0.0055198134,0.008,0.017,0.088,0.009,-0.043,-0.029,54.171138525009155,0.044529639184474945,0.02554435282945633,0.5392173528671265,,,,,,,,0.616739147020676,0.5753566796368352,0.6041657129777981,0.6266269932097353,98000.0,94900.0,99700.0,95800.0,54.171138525009155,0.10115205615320058,0.026504921034561684,0.010666056305790799,0.10115205615320058,-0.009,-0.051,9.49219,54.171138525009155,0.034,0.021,0.5,0.0,0.0,-0.0,1.0,0.0,0.0,0.0,0.0,0.0,0.0,0.0,0.0,0.0,54.171138525009155,3.621000051498413,False,True,False,True,True,False,False
149,1.49,0.044,0.025,0.538,0.0027675412129610777,-0.004151311703026295,0.0027675412129610777,0.9999837279319763,0.005512233,-0.008317903,0.005512233,0.006,0.018,0.089,0.029,-0.021,-0.005,54.18175005912781,0.04448480159044266,0.025721458718180656,0.5398414134979248,,,,,,,,0.6198214694438087,0.567025253681239,0.5971160448615244,0.6148165102616923,98400.0,94300.0,98000.0,96500.0,54.18175005912781,0.06752117189288166,0.023270008392462044,0.00874341954680705,0.06752117189288166,-0.053,-0.067,9.53419,54.18175005912781,0.034,0.021,0.5,0.0,0.0,-0.0,1.0,0.0,0.0,0.0,0.0,0.0,0.0,0.0,0.0,0.0,54.18175005912781,3.621000051498413,False,True,False,True,True,False,False
150,1.5,0.044,0.025,0.539,0.0027675412129610777,-0.004151311703026295,0.0027675412129610777,0.9999837279319763,0.005512233,-0.008317903,0.005512233,0.006,0.016,0.084,0.076,0.007,0.007,54.19142031669617,0.04454315826296806,0.026153866201639175,0.5408567190170288,,,,,,,,0.6417944609750516,0.5736476691844052,0.5848477912565805,0.6109407186999314,98000.0,94600.0,97700.0,96200.0,54.19142031669617,0.525261310749981,0.027313649195086595,0.007827878233005264,0.525261310749981,-0.056,-0.092,9.42319,54.19142031669617,0.034,0.021,0.5,0.0,0.0,-0.0,1.0,0.0,0.0,0.0,0.0,0.0,0.0,0.0,0.0,0.0,54.19142031669617,3.5889999866485596,False,True,False,True,True,False,False
151,1.51,0.044,0.025,0.532,0.0027675412129610777,-0.004151311703026295,0.0027675412129610777,0.9999837279319763,0.005512233,-0.008317903,0.005512233,0.008,0.018,0.053,0.052,-0.007,0.011,54.201486349105835,0.04461655765771866,0.026266945526003838,0.5413781404495239,,,,,,,,0.653131914244297,0.6179140917067216,0.6618905928130007,0.6458381017776761,98400.0,94000.0,98000.0,95800.0,54.201486349105835,0.31860837720302126,0.032318608377203024,0.010925459678034637,0.31860837720302126,-0.028,-0.096,9.36819,54.201486349105835,0.034,0.021,0.5,0.0,0.0,-0.0,1.0,0.0,0.0,0.0,0.0,0.0,0.0,0.0,0.0,0.0,54.201486349105835,3.5889999866485596,False,True,False,True,True,False,False
152,1.52,0.044,0.025,0.536,0.0027675412129610777,-0.004151311703026295,0.0027675412129610777,0.9999837279319763,0.005512233,-0.008317903,0.005512233,0.006,0.014,0.061,0.002,-0.004,0.013,54.211604595184326,0.0446603037416935,0.026420341804623604,0.5417733788490295,,,,,,,,0.622369726100557,0.5895628290226597,0.655542839703975,0.6424505989166095,98700.0,94900.0,99000.0,96200.0,54.211604595184326,0.04185549706263828,-0.0052491035324635695,0.011291676203555352,0.04185549706263828,-0.059,-0.151,9.38119,54.211604595184326,0.034,0.021,0.5,0.0,0.0,-0.0,1.0,0.0,0.0,0.0,0.0,0.0,0.0,0.0,0.0,0.0,54.211604595184326,3.5889999866485596,False,True,False,True,True,False,False
153,1.53,0.044,0.025,0.539,0.004151311703026295,-0.004151311703026295,0.0027675412129610777,0.9999789595603943,0.0055007176,-0.008325522,0.008279853,0.004,0.012,0.064,0.014,-0.03,-0.01,54.22491502761841,0.04476819932460785,0.026786519214510918,0.5422437787055969,,,,,,,,0.6281223773556115,0.5974517433432517,0.6239414053559167,0.6220798046845197,100000.0,95500.0,100000.0,96800.0,54.22491502761841,0.636285954070344,0.02720683604180972,0.010223544670786603,0.636285954070344,-0.028,-0.079,9.52919,54.22491502761841,0.034,0.021,0.5,0.0,0.0,-0.0,1.0,0.0,0.0,0.0,0.0,0.0,0.0,0.0,0.0,0.0,54.22491502761841,3.5889999866485596,False,True,False,True,True,False,False
154,1.54,0.044,0.025,0.541,0.004151311703026295,-0.004151311703026295,0.0027675412129610777,0.9999789595603943,0.0055007176,-0.008325522,0.008279853,0.005,-0.005,0.064,0.036,-0.059,-0.005,54.231789112091064,0.044556815177202225,0.026740044355392456,0.5425715446472168,,,,,,,,0.6494239719233997,0.6045929655909056,0.5963225757228962,0.6090485999847409,99700.0,96200.0,100000.0,95800.0,54.231789112091064,0.18562600137331198,0.0033112077515831235,0.007827878233005264,0.18562600137331198,-0.032,-0.12,9.59319,54.231789112091064,0.034,0.021,0.5,0.0,0.0,-0.0,1.0,0.0,0.0,0.0,0.0,0.0,0.0,0.0,0.0,0.0,54.231789112091064,3.6050000190734863,False,True,False,True,True,False,False
155,1.55,0.044,0.025,0.534,0.005535082425922155,-0.004151311703026295,0.0027675412129610777,0.9999722242355347,0.005489191,-0.008333125,0.011047488,0.002,-0.017,0.047,-0.021,0.014,0.0,54.24435615539551,0.04481029137969017,0.027067001909017563,0.5431469082832336,,,,,,,,0.6854352635996033,0.6172579537651637,0.6228732738231479,0.6496070801861601,100000.0,96800.0,97400.0,94600.0,54.24435615539551,0.40204470893415734,-0.004928664072632944,0.00988784618905928,0.40204470893415734,-0.071,-0.187,9.61719,54.24435615539551,0.034,0.021,0.5,0.0,0.0,-0.0,1.0,0.0,0.0,0.0,0.0,0.0,0.0,0.0,0.0,0.0,54.24435615539551,3.6050000190734863,False,True,False,True,True,False,False
156,1.56,0.044,0.026,0.539,0.005535082425922155,-0.004151311703026295,0.0027675412129610777,0.9999722242355347,0.005489191,-0.008333125,0.011047488,0.003,-0.017,0.061,-0.138,0.063,-0.001,54.253445625305176,0.04481029137969017,0.027067001909017563,0.5431469082832336,,,,,,,,0.6186160067139697,0.5794308384832533,0.6441596093690395,0.6429388876173038,102400.0,96500.0,98700.0,96200.0,54.253445625305176,0.8533150225070573,0.04301518272678721,0.010070954451819639,0.8533150225070573,-0.059,-0.174,9.591190000000001,54.253445625305176,0.034,0.021,0.5,0.0,0.0,-0.0,1.0,0.0,0.0,0.0,0.0,0.0,0.0,0.0,0.0,0.0,54.253445625305176,3.6050000190734863,False,True,False,True,True,False,False
157,1.57,0.044,0.026,0.539,0.005535082425922155,-0.004151311703026295,0.0027675412129610777,0.9999722242355347,0.005489191,-0.008333125,0.011047488,0.002,-0.018,0.059,-0.219,0.018,0.0,54.26144742965698,0.04470512270927429,0.027253447100520134,0.5434452891349792,,,,,,,,0.6107423514152743,0.5820248722056917,0.6526741435873961,0.6403143358510719,101000.0,95200.0,98400.0,97100.0,54.26144742965698,0.8796520943007553,0.06387426565957122,0.009140154116121157,0.8796520943007553,-0.038,-0.163,9.74419,54.26144742965698,0.034,0.021,0.5,0.0,0.0,-0.0,1.0,0.0,0.0,0.0,0.0,0.0,0.0,0.0,0.0,0.0,54.26144742965698,3.6050000190734863,False,True,False,True,True,False,False
158,1.58,0.044,0.026,0.542,0.004151311703026295,-0.004151311703026295,0.0027675412129610777,0.9999789595603943,0.0055007176,-0.008325522,0.008279853,0.0,-0.015,0.068,-0.2,-0.024,0.007,54.271247148513794,0.04483242332935333,0.027760259807109833,0.5441463589668274,,,,,,,,0.6119478141451133,0.5979705500877394,0.6270542458228427,0.5943999389639124,99300.0,94900.0,101000.0,99300.0,54.271247148513794,0.08961623559929809,0.0021820401312275884,0.011108567940794995,0.08961623559929809,-0.082,-0.083,9.78119,54.271247148513794,0.034,0.021,0.5,0.0,0.0,-0.0,1.0,0.0,0.0,0.0,0.0,0.0,0.0,0.0,0.0,0.0,54.271247148513794,3.609999895095825,False,True,False,True,True,False,False
159,1.59,0.043,0.026,0.54,0.0013837706064805388,-0.004151311703026295,0.0027675412129610777,0.9999865889549255,0.0055237385,-0.008310267,0.0027446246,-0.002,-0.006,0.069,-0.05,0.063,0.004,54.29428291320801,0.045158032327890396,0.02817632630467415,0.5448276996612549,,,,,,,,0.6396887159533073,0.5684901197833219,0.6055695429922942,0.6320286869611658,98400.0,95800.0,99000.0,97700.0,54.29428291320801,0.20277714198519875,0.043717097734035246,0.01297016861219196,0.20277714198519875,-0.068,-0.02,9.658190000000001,54.29428291320801,0.034,0.021,0.5,0.0,0.0,-0.0,1.0,0.0,0.0,0.0,0.0,0.0,0.0,0.0,0.0,0.0,54.29428291320801,3.609999895095825,False,True,False,True,True,False,False
160,1.6,0.043,0.026,0.54,0.0013837706064805388,-0.004151311703026295,0.0027675412129610777,0.9999865889549255,0.0055237385,-0.008310267,0.0027446246,-0.002,-0.006,0.069,-0.05,0.063,0.004,54.29428291320801,0.045158032327890396,0.02817632630467415,0.5448276996612549,,,,,,,,0.6396887159533073,0.5684901197833219,0.6055695429922942,0.6320286869611658,98400.0,95800.0,99000.0,97700.0,54.29428291320801,0.20277714198519875,0.043717097734035246,0.01297016861219196,0.20277714198519875,-0.068,-0.02,9.658190000000001,54.29428291320801,0.034,0.021,0.5,0.0,0.0,-0.0,1.0,0.0,0.0,0.0,0.0,0.0,0.0,0.0,0.0,0.0,54.29428291320801,3.609999895095825,False,True,False,True,True,False,False
161,1.61,0.044,0.027,0.542,0.0,-0.004151311703026295,0.0027675412129610777,0.9999875426292419,0.0055352324,-0.008302615,-2.2978644e-05,-0.002,-0.003,0.074,-0.035,0.056,0.005,54.30179953575134,0.044830579310655594,0.028307262808084488,0.5451216101646423,,,,,,,,0.6254673075455863,0.5648889906157015,0.6021210040436408,0.6160677500572214,99000.0,94300.0,97700.0,96200.0,54.30179953575134,0.5311512932021057,0.03689631494621195,0.012588693064774548,0.5311512932021057,-0.049,-0.03,9.59619,54.30179953575134,0.034,0.021,0.5,0.0,0.0,-0.0,1.0,0.0,0.0,0.0,0.0,0.0,0.0,0.0,0.0,0.0,54.30179953575134,3.609999895095825,False,True,False,True,True,False,False
162,1.62,0.044,0.027,0.544,0.0,-0.0027675412129610777,0.0027675412129610777,0.999992311000824,0.005535153,-0.0055350685,-1.5318803e-05,-0.002,-0.001,0.076,-0.029,0.016,-0.009,54.31139254570007,0.04482249915599823,0.02845398336648941,0.5452922582626343,,,,,,,,0.6033875028610666,0.587487602044709,0.6079652094300755,0.5879148546578165,99300.0,94600.0,98700.0,97100.0,54.31139254570007,0.15030136568245975,0.029846646829938202,0.012146181429770352,0.15030136568245975,0.009,-0.037,9.51819,54.31139254570007,0.034,0.021,0.5,0.0,0.0,-0.0,1.0,0.0,0.0,0.0,0.0,0.0,0.0,0.0,0.0,0.0,54.31139254570007,3.621000051498413,False,True,False,True,True,False,False
163,1.6300000000000001,0.044,0.027,0.544,0.0,-0.0027675412129610777,0.0027675412129610777,0.999992311000824,0.005535153,-0.0055350685,-1.5318803e-05,-0.004,-0.002,0.073,-0.008,0.002,0.002,54.32185769081116,0.04482249915599823,0.02845398336648941,0.5452922582626343,,,,,,,,0.6102845807583734,0.5713740749217975,0.604974441138323,0.5999389639124132,97700.0,94300.0,99000.0,96200.0,54.32185769081116,0.7549095902952621,0.009948882276646066,0.00788891432059205,0.7549095902952621,-0.006,-0.049,9.501190000000001,54.32185769081116,0.034,0.021,0.5,0.0,0.0,-0.0,1.0,0.0,0.0,0.0,0.0,0.0,0.0,0.0,0.0,0.0,54.32185769081116,3.621000051498413,False,True,False,True,True,False,False
164,1.6400000000000001,0.044,0.027,0.537,0.0,-0.0027675412129610777,0.0027675412129610777,0.999992311000824,0.005535153,-0.0055350685,-1.5318803e-05,-0.003,-0.003,0.035,0.019,0.016,0.017,54.33130717277527,0.04465608671307564,0.028571834787726402,0.5455670952796936,,,,,,,,0.6719615472648204,0.6176089112687877,0.6469672693980316,0.6466926070038911,97400.0,94300.0,98700.0,94900.0,54.33130717277527,0.742046234836347,-0.0015411612115663385,0.011322194247348745,0.742046234836347,-0.026,-0.048,9.32419,54.33130717277527,0.034,0.021,0.5,0.0,0.0,-0.0,1.0,0.0,0.0,0.0,0.0,0.0,0.0,0.0,0.0,0.0,54.33130717277527,3.621000051498413,False,True,False,True,True,False,False
165,1.6500000000000001,0.043,0.027,0.543,0.0,-0.0027675412129610777,0.0027675412129610777,0.999992311000824,0.005535153,-0.0055350685,-1.5318803e-05,-0.005,-0.003,0.052,0.027,0.043,0.0,54.341657876968384,0.04469685256481171,0.02901601791381836,0.5459192991256714,,,,,,,,0.6269169146257725,0.5877012283512627,0.6290836957351034,0.6255130846112764,100000.0,93500.0,98700.0,96200.0,54.341657876968384,0.3276112001220722,0.035538261997405965,0.011718928816662852,0.3276112001220722,-0.057,-0.054,9.40019,54.341657876968384,0.034,0.021,0.5,0.0,0.0,-0.0,1.0,0.0,0.0,0.0,0.0,0.0,0.0,0.0,0.0,0.0,54.341657876968384,3.621000051498413,False,True,False,True,True,False,False
166,1.6600000000000001,0.043,0.027,0.543,0.0,-0.0027675412129610777,0.0027675412129610777,0.999992311000824,0.005535153,-0.0055350685,-1.5318803e-05,-0.005,-0.003,0.048,0.004,0.056,0.005,54.35358142852783,0.04467404633760452,0.029157079756259918,0.5462003946304321,,,,,,,,0.6214847028305486,0.5892271305409323,0.6409857328145266,0.626489662012665,100000.0,94600.0,99000.0,96500.0,54.35358142852783,0.5073777370870527,0.010299839780270085,0.012100404364080263,0.5073777370870527,-0.05,-0.072,9.46719,54.35358142852783,0.034,0.021,0.5,0.0,0.0,-0.0,1.0,0.0,0.0,0.0,0.0,0.0,0.0,0.0,0.0,0.0,54.35358142852783,3.5999999046325684,False,True,False,True,True,False,False
167,1.67,0.043,0.028,0.544,0.0,-0.0027675412129610777,0.0027675412129610777,0.999992311000824,0.005535153,-0.0055350685,-1.5318803e-05,-0.004,-0.003,0.047,-0.036,0.025,-0.03,54.36138677597046,0.04460711404681206,0.029413476586341858,0.5462828278541565,,,,,,,,0.6219577325093462,0.5965972381170367,0.624124513618677,0.6287327382314793,98000.0,94600.0,99000.0,96500.0,54.36138677597046,0.6057068741893644,0.03868162050812543,0.010757610437170977,0.6057068741893644,0.001,-0.037,9.54719,54.36138677597046,0.034,0.021,0.5,0.0,0.0,-0.0,1.0,0.0,0.0,0.0,0.0,0.0,0.0,0.0,0.0,0.0,54.36138677597046,3.5999999046325684,False,True,False,True,True,False,False
168,1.68,0.043,0.028,0.545,0.0,-0.0027675412129610777,0.0027675412129610777,0.999992311000824,0.005535153,-0.0055350685,-1.5318803e-05,-0.004,0.0,0.046,-0.006,0.028,0.0,54.374523639678955,0.044714752584695816,0.029628431424498558,0.546212911605835,,,,,,,,0.6313267719539177,0.5728236820019836,0.6202792401007096,0.63764400701915,97700.0,95500.0,99000.0,97400.0,54.374523639678955,0.1739833676661326,0.01817349507896544,0.007186999313344014,0.1739833676661326,-0.048,-0.013,9.607190000000001,54.374523639678955,0.034,0.021,0.5,0.0,0.0,-0.0,1.0,0.0,0.0,0.0,0.0,0.0,0.0,0.0,0.0,0.0,54.374523639678955,3.5999999046325684,False,True,False,True,True,False,False
169,1.69,0.043,0.028,0.544,-0.0,-0.0027675412129610777,0.0027675412129610777,0.999992311000824,0.005535153,-0.0055350685,-1.5318803e-05,-0.007,0.002,0.034,0.044,0.032,0.001,54.38275694847107,0.044515788555145264,0.029704300686717033,0.546414315700531,,,,,,,,0.6405279621576256,0.6199588006408789,0.6400701915007248,0.6179751277943084,98700.0,94900.0,99300.0,98000.0,54.38275694847107,0.5752346074616617,0.02594033722438392,0.011566338597695888,0.5752346074616617,-0.035,-0.017,9.565190000000001,54.38275694847107,0.034,0.021,0.5,0.0,0.0,-0.0,1.0,0.0,0.0,0.0,0.0,0.0,0.0,0.0,0.0,0.0,54.38275694847107,3.5999999046325684,False,True,False,True,True,False,False
170,1.7,0.043,0.029,0.544,-0.0,-0.0013837706064805388,0.0027675412129610777,0.999995231628418,0.0055351052,-0.0027675314,-7.659313e-06,-0.004,0.012,0.032,0.049,0.013,0.01,54.391357421875,0.044493936002254486,0.029836369678378105,0.546380877494812,,,,,,,,0.6347753109025711,0.598794537270161,0.651468680857557,0.6375219348439765,100000.0,95200.0,100000.0,97700.0,54.391357421875,0.18942549782558937,0.010345616845960174,0.010772869459067674,0.18942549782558937,-0.061,-0.03,9.59519,54.391357421875,0.034,0.021,0.5,0.0,0.0,-0.0,1.0,0.0,0.0,0.0,0.0,0.0,0.0,0.0,0.0,0.0,54.391357421875,3.5940001010894775,False,True,False,True,True,False,False
