,Unnamed: 0,t,x,y,z,qx,qy,qz,qw,yaw,pitch,roll,vx,vy,vz,wx,wy,wz,ros_timestamp,x_poses,y_poses,z_poses,qx_poses,qy_poses,qz_poses,qw_poses,yaw_poses,pitch_poses,roll_poses,m1_thrust,m2_thrust,m3_thrust,m4_thrust,m1_erpm,m2_erpm,m3_erpm,m4_erpm,ros_timestamp_motors,thrust,torque_roll,torque_pitch,torque_yaw,ax,ay,az,ros_timestamp_image_accel,x_r,y_r,z_r,qx_r,qy_r,qz_r,qw_r,yaw_r,pitch_r,roll_r,vx_r,vy_r,vz_r,wx_r,wy_r,wz_r,ros_timestamp_r,Vbat,can_be_armed,is_armed,auto_arm,can_fly,is_flying,is_tumbled,is_locked,m1_rads,m1_rads2,m2_rads,m2_rads2,m3_rads,m3_rads2,m4_rads,m4_rads2,ax_body,ay_body,az_body,lag_samples,lag_seconds,rx,ry,rz
0,249,3.5298244590411646e-16,0.038914767841514306,-0.029713620548344307,0.5656741615932557,0.00692824401308031,-0.0011338130505761863,-0.00022733593679433175,0.9999753308063322,-9.551584668046614e-05,-0.002522495087991357,0.010656835232816526,0.00022950855843477565,0.06255668911698194,0.0390995055420852,-0.09446780999710146,-0.20683885378093952,-0.038708997695084034,30.35963797569275,0.0430660881102085,-0.0256249513477087,0.537756085395813,,,,,,,,0.7733543543279585,0.6836420209135647,0.568618373724915,0.6526508750586395,100000.0,97100.0,100000.0,98400.0,30.35963797569275,0.7555484019956782,0.06737805987671426,-0.0036315439991729333,0.2629838372897297,0.059138135412430216,-0.174994932290477,9.912219680126395,30.35907769203186,2.8421213192816348e-05,-0.000224210365754552,0.500065789285459,0.0,0.0,0.0,1.0,0.0,1.402386978473882e-18,-9.568369488545757e-19,0.00017263157894736915,-0.00019684210526315794,0.00019947368421052667,0.0,0.0,0.0,30.35963797569275,3.572999954223633,False,True,False,True,True,False,False,1745.3358678042384,3046198.038665889,1694.715356503345,2872059.87644476,1745.3639967344582,3046301.5262776865,1717.460251482707,2949682.177314324,0.0861784236151864,-0.010589428660767536,9.913530034221104,2,0.02,0.013858962301778615,-0.002406388361130019,-0.00045508646984188046
1,250,0.010000000000000139,0.0386834534307785,-0.029463068757155562,0.5662497231727096,0.0061160619854002014,-0.003641161259452748,-0.00033803747706653625,0.9999746104082531,-0.00033984878173395677,-0.0075434395660359905,0.00903139127393708,-0.0026915282999796473,0.060603737414968314,0.037893297390595757,-0.2083377893971004,-0.43655708174954777,-0.06165412089718052,30.36954689025879,0.0426563434302806,-0.0254752226173877,0.5378965139389038,,,,,,,,0.6938667299437593,0.6039340397426668,0.6107602011178088,0.682160797546377,104500.0,98400.0,97400.0,98000.0,30.36954689025879,0.7003452672310986,-0.08399151970931845,-0.001189962307733259,0.20778070252514996,0.043360088954577464,-0.2488756298796792,9.861901051961276,30.367149591445923,2.8421213192816348e-05,-0.000224210365754552,0.500065789285459,0.0,0.0,0.0,1.0,0.0,1.402386978473882e-18,-9.568369488545757e-19,0.00017263157894736915,-0.00019684210526315794,0.00019947368421052667,0.0,0.0,0.0,30.35963797569275,3.556999921798706,False,True,False,True,True,False,False,1825.0894557670274,3327333.840821558,1713.1809506733393,2933623.089127402,1681.1008187042264,2817844.240450812,1733.4516587271023,3003252.25667781,0.09696511571296457,-0.04822219023933527,9.814954934323607,2,0.02,0.013859034708944085,-0.005173520508417803,-0.0004550888474745349
2,251,0.019999999999999928,0.038483427164319205,-0.029227458032480502,0.5667318256716689,0.005395424289791091,-0.005391324980165779,-0.0005312317421279868,0.9999707699750666,-0.0007420130179165942,-0.011044673273604973,0.007586765609028219,-0.00546488782761926,0.05900634385681963,0.03711094661237063,-0.2044525857071771,-0.3170693894857467,-0.0757237328005593,30.37938141822815,0.0428784266114234,-0.0249963011592626,0.5383272171020508,,,,,,,,0.5897620263842096,0.6051342523119106,0.6875335311902189,0.6526731466452297,105600.0,100300.0,96200.0,99000.0,30.37938141822815,0.6782466549267895,-0.2259564587285734,-0.0034019052101942064,0.18568209022084076,0.08331494031719155,-0.3012605861376814,9.843353834059524,30.37681007385254,2.8421213192816348e-05,-0.000224210365754552,0.500065789285459,0.0,0.0,0.0,1.0,0.0,1.402386978473882e-18,-9.568369488545757e-19,0.03417263157894737,-0.00019684210526315794,0.00019947368421052667,0.0,0.0,0.0,30.399428606033325,3.556999921798706,False,True,False,True,True,False,False,1838.6378881127503,3375968.083755463,1718.9101517007289,2951814.2594743203,1685.9834340897414,2837230.3557332903,1737.628373636973,3017333.6382512157,0.17238034314534656,-0.1805829525908848,9.885539408177518,2,0.02,0.011091819718059186,-0.007940571042848536,-0.00045508490401132047
3,252,0.03000000000000016,0.03834532869326558,-0.0290224034095461,0.5670506889798735,0.00483143600317314,-0.00561560413336253,-0.0008313830434390958,0.9999722151233001,-0.0013447640754538496,-0.011483865496120512,0.006452446328046823,-0.008321493327728247,0.057737561609740654,0.03860900645255636,-0.09120846277677958,0.26524323316719917,-0.07369910274504869,30.38955020904541,0.0426427274942398,-0.025092976167798,0.5383327007293701,,,,,,,,0.5002340881139681,0.6875884988863749,0.7648830966496438,0.572576110655042,101400.0,98700.0,100300.0,99700.0,30.38955020904541,0.6646670015898088,-0.2933491072051212,-0.009130439138886226,0.17210243688386023,0.09702366597543263,-0.2621268042980517,9.883265389426558,30.38671898841858,2.8421213192816348e-05,-0.000224210365754552,0.500065789285459,0.0,0.0,0.0,1.0,0.0,1.402386978473882e-18,-9.568369488545757e-19,0.03417263157894737,-0.00019684210526315794,0.00019947368421052667,0.0,0.0,0.0,30.399428606033325,3.556999921798706,False,True,False,True,True,False,False,1771.675406654837,3144509.0578300525,1729.9253624504415,2992449.8533077403,1774.469867230133,3159113.7653276753,1715.739540569407,2944808.02514849,0.1788469135748349,-0.1718707553109792,9.889319324456745,2,0.02,0.008324718344767888,-0.0107076597426083,-0.00045508460097357014
4,253,0.039999999999999945,0.038289702123176145,-0.02886339670239059,0.5671616459350646,0.004440179315408326,-0.0036897285648192293,-0.0011799105060522493,0.9999826391102811,-0.0020251479090788874,-0.007613647203838392,0.005663452719595471,-0.011486243202788184,0.05651428909152996,0.043421629366005035,0.010132853617283909,1.1241141446398826,-0.05688999385858674,30.399428606033325,0.0427402704954147,-0.0249358359724283,0.5384717583656311,,,,,,,,0.4920083842146612,0.7683279407593355,0.7729074124751781,0.5109918899025062,97700.0,98000.0,107900.0,97100.0,30.399428606033325,0.6005111117192182,-0.24034424593194897,-0.012238595802124632,0.10794654701326956,-0.07019652284204218,-0.12580912569064434,10.023720489727381,30.39655351638794,2.8421213192816348e-05,-0.000224210365754552,0.500065789285459,0.0,0.0,0.0,1.0,0.0,1.402386978473882e-18,-9.568369488545757e-19,0.03417263157894737,-0.00019684210526315794,0.00019947368421052667,0.0,0.0,0.0,30.399428606033325,3.556999921798706,False,True,False,True,True,False,False,1674.3018462966606,2809898.370159451,1773.4705332140754,3152271.026670095,1890.1346491250913,3581948.427940606,1668.9637504869343,2789929.8297627447,0.05679988676167564,-0.014200113238324374,10.008945009627535,2,0.02,0.008324743824703803,-0.010707692516147626,-0.003222188217812477
5,254,0.050000000000000176,0.038323619031790025,-0.02876092793598252,0.5670548736710339,0.004177172769030986,0.0007186096988782314,-0.0014597803118377296,0.9999899518841174,-0.0025444692450125274,0.001223300943672832,0.005137254494357351,-0.014000534228644355,0.05509254509025695,0.048859747229219055,-0.003665958930233747,1.9278403204549843,-0.0371944871168699,30.409822463989254,0.0432901233434677,-0.0247513391077518,0.538581371307373,,,,,,,,0.5655125110728088,0.7652593413037057,0.700510559877262,0.5213682331586422,90100.0,107500.0,114500.0,90900.0,30.409822463989254,0.4897174262806564,-0.12068756977374223,-0.008683424149051855,-0.0028471384252923213,-0.39566145854759055,-0.017222988441141562,10.259740312113026,30.4067223072052,0.0020284212131928166,-0.000224210365754552,0.500065789285459,0.0,0.0,0.0,1.0,0.0,1.402386978473882e-18,-9.568369488545757e-19,0.11817263157894736,-0.00019684210526315794,0.00019947368421052667,0.0,0.0,0.0,30.433714628219604,3.572999954223633,False,True,False,True,True,False,False,1618.9196948704266,2621324.295645253,1840.062539979706,3394203.3518598336,1951.2558385664965,3806770.630859226,1625.1640545235073,2644755.9328141706,-0.37000000000000005,0.13544606677385362,10.247318509692938,2,0.02,0.008324154231175942,0.00036069083213762144,-0.0032219600088298616
6,255,0.06000000000000041,0.0384440860375777,-0.02871517397039325,0.5667658927890531,0.003953341478157703,0.007542633891527916,-0.0015562939298689234,0.9999625281551001,-0.002671268853315882,0.014881673151451247,0.0047030877667888615,-0.013301252253003257,0.0532766986310636,0.050328325417729865,-0.11803507789056189,2.440170266360136,-0.026818219791433832,30.41935157775879,0.0439545735716819,-0.0246468242257833,0.5387834310531616,,,,,,,,0.6404255509228887,0.6785333698958567,0.6187562804056213,0.5879136799870962,92600.0,110300.0,111100.0,91200.0,30.41935157775879,0.4255001240991611,-0.0179834817521144,-0.0015541625940482394,-0.06706444060678766,-0.5957249618585335,-0.042492319682542676,10.451780423463093,30.416600704193115,0.0020284212131928166,-0.000224210365754552,0.500065789285459,0.0,0.0,0.0,1.0,0.0,1.402386978473882e-18,-9.568369488545757e-19,0.11817263157894736,-0.00019684210526315794,0.00019947368421052667,0.0,0.0,0.0,30.433714628219604,3.572999954223633,False,True,False,True,True,False,False,1635.9085931304328,2679161.888133904,1883.2828121603616,3548748.5302450717,1925.4228627925343,3710634.09469188,1614.1929081271169,2607106.329959811,-0.7855310142391406,0.02273200396389749,10.447322006991278,2,0.02,0.00832497863944489,0.019730989178741026,-0.0032222791055692697
7,256,0.07000000000000019,0.03864867076753599,-0.028713519258326593,0.5663789561009497,0.0036735209222625966,0.016344268597908485,-0.0014201816608392442,0.9998586666184793,-0.0023108315377612563,0.03247793119133159,0.004176978550858085,-0.007099901410803638,0.05085757130293421,0.04675625598582724,-0.2295937470785209,2.642934581364912,-0.027142949995345986,30.41935157775879,0.0439545735716819,-0.0246468242257833,0.5387834310531616,,,,,,,,0.6513866176534913,0.5789125388761233,0.5976939814155469,0.6574051817517357,100300.0,105600.0,102400.0,95800.0,30.41935157775879,0.4626747470195964,0.060817611289011024,0.0026584501917354692,-0.02988981768635241,-0.4438128869709933,-0.14427598471531622,10.43286523553434,30.416600704193115,0.0020284212131928166,-0.000224210365754552,0.500065789285459,0.0,0.0,0.0,1.0,0.0,1.402386978473882e-18,-9.568369488545757e-19,0.11817263157894736,-0.00019684210526315794,0.00019947368421052667,0.0,0.0,0.0,30.433714628219604,3.572999954223633,False,True,False,True,True,False,False,1691.5675138492884,2865994.2346535316,1870.6830170241074,3499476.4947540206,1855.25823220029,3448103.5105976886,1636.360081994411,2677790.7312674504,-0.7855310142391406,0.02273200396389749,10.447322006991278,2,0.02,0.00832497863944489,0.019730989178741026,-0.0032222791055692697
8,257,0.07999999999999997,0.03894849040937798,-0.028732382249619808,0.5660115984802334,0.003275815508652083,0.026531724250461866,-0.0011007001981945077,0.9996419984675136,-0.0015730458153871414,0.05283594970447689,0.003433154399681449,0.0036177002043974154,0.04778472750937583,0.04247305503354402,-0.2534880460112841,2.6682528086020048,-0.030440126620480307,30.433714628219604,0.0447807610034942,-0.0245028510689735,0.5389372706413269,,,,,,,,0.6188264081823023,0.5336830535900212,0.635259101975044,0.6967473519913945,99000.0,102400.0,104500.0,96800.0,30.433714628219604,0.5140620997725439,0.1464202205084051,0.0018134980203268383,0.02149753506659513,-0.06390093331190644,-0.18628490639814765,10.225906828323781,30.43652367591858,0.0020284212131928166,-0.000224210365754552,0.500065789285459,0.0,0.0,0.0,1.0,0.0,1.402386978473882e-18,-9.568369488545757e-19,0.11817263157894736,-0.00019684210526315794,0.00019947368421052667,0.0,0.0,0.0,30.433714628219604,3.572999954223633,False,True,False,True,True,False,False,1732.9359348981698,3003327.6537890267,1816.9746370073262,3302331.1605886845,1806.0708121184025,3262045.372225534,1670.2533761103457,2788343.0567386476,-0.3949183037721081,-0.13207804449479554,10.194985088738884,2,0.02,0.008324113514038512,0.04739786447177482,-0.0032219442487916848
9,258,0.0900000000000002,0.03937591909291929,-0.028742830937616527,0.5657799354530096,0.002740711868307606,0.037717014700944386,-0.0007297518805432827,0.9992844353649748,-0.0007424378502617691,0.07520870606724488,0.0024208296361364814,0.014400237166599814,0.04433049349797929,0.04244603970113625,-0.19247104092316092,2.6588349310393875,-0.030486934743499148,30.45024847984314,0.0449913665652275,-0.0246338117867708,0.539008378982544,,,,,,,,0.5995462213860483,0.5616249278421469,0.6858882507788544,0.6990691295073193,99000.0,102400.0,104500.0,96800.0,30.45024847984314,0.45553658580537937,0.20459461833631032,-0.00021860329385540815,-0.03702797890056942,0.2935401972524552,-0.1302370868661132,10.036439601221847,30.450886726379395,0.008028421213192817,-0.000224210365754552,0.500065789285459,0.0,0.0,0.0,1.0,0.0,1.402386978473882e-18,-9.568369488545757e-19,0.24617263157894737,-0.00019684210526315794,0.00019947368421052667,0.0,0.0,0.0,30.46427011489868,3.5309998989105225,False,True,False,True,True,False,False,1742.975079657607,3036411.7167092375,1762.4705662589622,3105042.557575423,1801.7017676568062,3243595.5139877573,1703.7950429605003,2902248.0891899797,-0.6813059708990312,-0.025013287573768944,10.009293652679096,2,0.02,0.0027884766797426686,0.10266754974491119,-0.00045474960566346465
10,259,0.09999999999999999,0.03998138415717984,-0.028718322607238778,0.5657615639092177,0.0020703796752679702,0.050013168561123894,-0.00046450030781502636,0.998746304492758,-0.00016173072671563915,0.09987574004180545,0.0011249186871780783,0.02183913344604431,0.04098728474688159,0.0469075113692696,-0.1154741385982231,2.697000459451309,-0.0285834158706144,30.45024847984314,0.0449913665652275,-0.0246338117867708,0.539008378982544,,,,,,,,0.6073778185434693,0.6367582904763318,0.7211668166052077,0.6650302567701644,98000.0,100000.0,104500.0,96800.0,30.45024847984314,0.29710711930958966,0.1667066986471923,0.0005593361697727695,-0.19545744539635906,0.5996611620907161,-0.055644137598158214,10.01327161809158,30.450886726379395,0.008028421213192817,-0.000224210365754552,0.500065789285459,0.0,0.0,0.0,1.0,0.0,1.402386978473882e-18,-9.568369488545757e-19,0.24617263157894737,-0.00019684210526315794,0.00019947368421052667,0.0,0.0,0.0,30.46427011489868,3.5309998989105225,False,True,False,True,True,False,False,1740.77292302208,3030341.8403856894,1736.4271070879936,3012676.1975426255,1820.3846972572856,3312799.6679189736,1736.9390618739858,3019012.3295142725,-0.6813059708990312,-0.025013287573768944,10.009293652679096,2,0.02,0.0027884766797426686,0.10266754974491119,-0.00045474960566346465
11,260,0.11000000000000022,0.04081912924060199,-0.02864236900117004,0.5659766487877782,0.0012656998454024042,0.06400295223305395,-0.00041688230533643147,0.9979488194885038,-8.42517330760893e-05,0.12807448338424696,-0.00047362050624137863,0.028602318666198036,0.03824931911873816,0.052310435285116585,-0.08650060455701511,2.8096124346125757,-0.029912611683325742,30.46427011489868,0.0470570921897888,-0.0241071339696645,0.5395941734313965,,,,,,,,0.619139342008718,0.7082840439108709,0.7364926101111138,0.6118197390860538,101400.0,100000.0,104500.0,102700.0,30.46427011489868,0.1677122183194104,0.05010537154736153,0.003269928880404729,-0.32485234638653826,0.940773738257888,-0.02867215702668159,10.115450549793394,30.46742057800293,0.008028421213192817,-0.000224210365754552,0.500065789285459,0.0,0.0,0.0,1.0,0.0,1.402386978473882e-18,-9.568369488545757e-19,0.24617263157894737,-0.00019684210526315794,0.00019947368421052667,0.0,0.0,0.0,30.46427011489868,3.5309998989105225,False,True,False,True,True,False,False,1742.9018343928365,3038816.537468816,1745.4877053120508,3046876.2066258197,1835.144645311445,3368181.312224203,1759.9791967750084,3100590.6163552958,-0.1397276078945291,0.03600523552300758,10.212399354446877,2,0.02,0.002786993362466718,0.13024878915960697,-0.00045450770371348147
12,261,0.12000000000000001,0.04192823275467582,-0.028513626527883525,0.5663935680393211,0.0003303661211789079,0.08028552544297232,-0.0006062179553251216,0.9967716678168388,-0.0005686721840375262,0.1610784325561337,-0.00238167327218274,0.04251857748287185,0.03641303295228257,0.056735317031253354,-0.11341459597421996,2.978627506352219,-0.03650648899726731,30.46427011489868,0.0470570921897888,-0.0241071339696645,0.5395941734313965,,,,,,,,0.6273593293574538,0.7313128329391663,0.7309724497297334,0.5812212879032312,101400.0,100000.0,104500.0,102700.0,30.46427011489868,0.1529608244764481,-0.039012765600379216,0.004188127182775558,-0.3396037402295006,1.2885482481743846,-0.02942662257939642,10.221664364077245,30.46742057800293,0.008028421213192817,-0.000224210365754552,0.500065789285459,0.0,0.0,0.0,1.0,0.0,1.402386978473882e-18,-9.568369488545757e-19,0.24617263157894737,-0.00019684210526315794,0.00019947368421052667,0.0,0.0,0.0,30.46427011489868,3.5309998989105225,False,True,False,True,True,False,False,1748.4728116482386,3057518.477034949,1778.3898418476692,3165460.399281976,1838.3769698981357,3380290.5124884285,1757.6222627856664,3091088.7518342896,-0.1397276078945291,0.03600523552300758,10.212399354446877,2,0.02,0.002786993362466718,0.13024878915960697,-0.00045450770371348147
13,262,0.13000000000000025,0.04331983391743929,-0.028346034862907574,0.5669499295264772,-0.0007015328199553685,0.09887596566522606,-0.0009580662574694884,0.9950990570664399,-0.0014671081316276389,0.19897676054668012,-0.004532922244595971,0.06936064231379856,0.03538640407919417,0.06217591011799387,-0.1528788941061837,3.144005593463872,-0.04495299975594606,30.48517727851868,0.0496692955493927,-0.0238160640001297,0.5400428771972656,,,,,,,,0.6456884626005691,0.7028199916220916,0.7113485275067434,0.6052638464153728,100000.0,105300.0,106000.0,98400.0,30.48517727851868,0.2215812563350267,-0.03700892474628625,0.0019865911691597416,-0.270983308370922,1.6014438148426813,-0.0251329621549971,10.288465613181339,30.48698401451111,0.019028421213192814,-0.000224210365754552,0.500065789285459,0.0,0.0,0.0,1.0,0.0,1.402386978473882e-18,-9.568369488545757e-19,0.40717263157894734,-0.00019684210526315794,0.00019947368421052667,0.0,0.0,0.0,30.50093030929565,3.509999990463257,False,True,False,True,True,False,False,1757.4860840967774,3088755.7485085963,1811.8022110594616,3284615.3898656354,1835.107690255781,3367921.396432529,1739.5127145950319,3025799.9312948063,-0.39679542124861267,-0.03795948725050739,10.503416899614324,2,0.02,2.3369518014362805e-05,0.19073874731305634,-0.0032128896344548823
14,263,0.14000000000000004,0.04498093572992038,-0.028162874433144167,0.5675775234097747,-0.00174973565143228,0.1189365156775519,-0.0013454927114326866,0.9928994074492123,-0.0025053778574762636,0.24012087675670235,-0.006754901009449896,0.10694872239304935,0.03467776819333561,0.07133111220912731,-0.15826482397142083,3.238380993328849,-0.05048372378340733,30.50093030929565,0.0511942990124225,-0.0236440170556306,0.5402872562408447,,,,,,,,0.6765374075187938,0.6642758559851749,0.6976829525982791,0.6674980915410287,100000.0,105300.0,106000.0,98400.0,30.50093030929565,0.3107186891938365,0.007864449068360901,-0.0010281677963195858,-0.18184587551211226,1.9503187993590425,-0.03799523707515094,10.370532922897866,30.502349376678467,0.019028421213192814,-0.000224210365754552,0.500065789285459,0.0,0.0,0.0,1.0,0.0,1.402386978473882e-18,-9.568369488545757e-19,0.40717263157894734,-0.00019684210526315794,0.00019947368421052667,0.0,0.0,0.0,30.50093030929565,3.509999990463257,False,True,False,True,True,False,False,1778.541344584793,3164609.6047197203,1824.204231864861,3327962.6991494247,1832.3353302578655,3357680.22061112,1741.2433043653255,3032519.3023451515,-0.7471396497279423,-0.02499074700734916,10.46612596152313,2,0.02,-0.00548137459048877,0.2563267426035868,-0.003205002076388579
15,264,0.15000000000000027,0.046896695813156516,-0.027986325194836965,0.5682254975572995,-0.0027114360221054947,0.13908531022145793,-0.0016461154292429661,0.9902753227760916,-0.003405658694476337,0.2817383762272191,-0.008819873778367137,0.14743677043257375,0.03375121759716422,0.08400588586993513,-0.12471380510620873,3.243084996099814,-0.05213532277366346,30.509755849838257,0.0533944927155971,-0.0235585365444421,0.5407471060752869,,,,,,,,0.7055279753519085,0.6587147494513222,0.7035578095583069,0.7187509238261944,105300.0,102400.0,103100.0,102000.0,30.509755849838257,0.41822419616230383,0.020681741399440977,-0.002258052314612116,-0.07434036854364509,2.390598870255041,-0.0828116508258856,10.508070275639128,30.506648540496823,0.019028421213192814,-0.000224210365754552,0.500065789285459,0.0,0.0,0.0,1.0,0.0,1.402386978473882e-18,-9.568369488545757e-19,0.40717263157894734,-0.00019684210526315794,0.00019947368421052667,0.0,0.0,0.0,30.50093030929565,3.509999990463257,False,True,False,True,True,False,False,1812.1254420670093,3285897.50038666,1814.8932901684125,3293804.404674987,1837.1616186238502,3375969.831474457,1782.0430701060336,3179666.6109605315,-0.7068740956120432,-0.10368451736065754,10.737053070089221,2,0.02,-0.005473195855553137,0.28892307998808675,-0.003200219906876497
16,265,0.16000000000000006,0.049080039726872915,-0.027827061341847113,0.5688772881474704,-0.0035126949403502554,0.15805158617271828,-0.0017852963907794765,0.98742299436429,-0.003989210890663926,0.32125997020905356,-0.010555777977089105,0.18519122918880154,0.03253502423156212,0.09732112753960387,-0.08977739496219636,3.200108118088161,-0.05329291914713678,30.519676446914676,0.055665485560894,-0.0233598165214061,0.5412107110023499,,,,,,,,0.7243211073174679,0.6894066147559564,0.7205855673644393,0.7312053157489664,106000.0,104900.0,107900.0,106800.0,30.519676446914676,0.5686989149240402,0.0011465120964585778,-0.0015209914901194348,0.07613435021809133,2.8550846405117962,-0.10294902219144784,10.653380538564843,30.518102407455444,0.03502842121319282,-0.000224210365754552,0.500065789285459,0.0,0.0,0.0,1.0,0.0,1.402386978473882e-18,-9.568369488545757e-19,0.5821726315789474,-0.00019684210526315794,0.00019947368421052667,0.0,0.0,0.0,30.529561042785645,3.509999990463257,False,True,False,True,True,False,False,1843.8420098825477,3400157.3154676687,1804.8747759408875,3258025.3733668313,1853.6073166595284,3437305.292090275,1838.1830878827493,3381695.9393613837,-0.707859644523007,-0.21601482552838666,11.052429207866824,2,0.02,-0.008208904640215548,0.31866735585813855,-0.003195343409608223
17,266,0.1700000000000003,0.05158958630362895,-0.027679117323323735,0.5695548378948757,-0.004148263488138116,0.17519732487984832,-0.0017524897592206849,0.984523040890675,-0.004224785100012617,0.3573942888832434,-0.011937498669387151,0.2214858222847368,0.03157095150276399,0.1082000032926346,-0.0909247041788454,3.161800000340194,-0.057536387328132245,30.529561042785645,0.05829543992877,-0.0231325402855873,0.5416354537010193,,,,,,,,0.7377891430140813,0.7253298220146059,0.7341253906189059,0.7224747907500926,107100.0,102000.0,106400.0,107900.0,30.529561042785645,0.7111811817307532,0.0010119461797900037,-0.0004474525597130588,0.21861661702480434,3.2534597253978728,-0.04540894241220987,10.75820436397408,30.526927947998047,0.03502842121319282,-0.000224210365754552,0.500065789285459,0.0,0.0,0.0,1.0,0.0,1.402386978473882e-18,-9.568369488545757e-19,0.5821726315789474,-0.00019684210526315794,0.00019947368421052667,0.0,0.0,0.0,30.529561042785645,3.499000072479248,False,True,False,True,True,False,False,1862.6685385787664,3468657.1573392134,1813.8293045342402,3291351.8818227546,1877.3197355145385,3525383.397258315,1871.7802512385806,3502513.1893528667,-0.6570416400252217,-0.0718274312109308,11.229241162229021,2,0.02,-0.008195236487002825,0.34827104061618447,-0.0031900230355505405
18,267,0.18000000000000008,0.05452219798258003,-0.027522499098066935,0.5703073273852424,-0.004680033515285561,0.1906040667410068,-0.0015973845992703157,0.981654539739173,-0.004228023808470446,0.39032444066608246,-0.01309675510234977,0.2618958859473474,0.03155741582005621,0.11531528064020714,-0.12511736779492272,3.1392799735111305,-0.06444797090799814,30.539227962493896,0.0614670142531394,-0.0229303538799285,0.5422632694244385,,,,,,,,0.748386222412355,0.7401771044496998,0.7445529663053922,0.7249113589762866,106000.0,106400.0,109500.0,106000.0,30.539227962493896,0.713947948707927,0.03594663075308884,-0.0005780602742955674,0.22138338400197827,3.599301999563278,0.05282878644236165,10.853486505079537,30.536848545074463,0.03502842121319282,-0.000224210365754552,0.500065789285459,0.0,0.0,0.0,1.0,0.0,1.402386978473882e-18,-9.568369488545757e-19,0.5821726315789474,-0.00019684210526315794,0.00019947368421052667,0.0,0.0,0.0,30.529561042785645,3.499000072479248,False,True,False,True,True,False,False,1874.0643330672096,3512097.445733012,1839.9092211636319,3386782.047019977,1899.0020178571474,3606112.785359804,1874.6756483121258,3513000.2134342697,-0.7304450849232342,0.0006051066539895511,11.343991848016172,2,0.02,-0.008179021315257615,0.380390683827325,-0.003183711226065279
19,268,0.1900000000000003,0.057982319897290836,-0.027331628106020817,0.5711893125627618,-0.005196806994773176,0.2047828207629582,-0.0014185214792007046,0.9787926120043196,-0.004234999868596452,0.42111952591650326,-0.014252082414614857,0.3106376907982029,0.03271927377309047,0.11992826597902773,-0.1526507346787572,3.102354637511824,-0.06954299380912705,30.54992914199829,0.0650869160890579,-0.0227271281182765,0.5429782271385193,,,,,,,,0.7507466875766868,0.7351073510972886,0.760172599060364,0.7476649377667359,107900.0,107900.0,110300.0,106800.0,30.54992914199829,0.5097727160776657,0.06987869317579427,-0.0023170089699228505,0.017208151371717023,3.983006217153752,0.11516104272046707,10.960190795116153,30.546733140945435,0.05802842121319282,-0.000224210365754552,0.500065789285459,0.0,0.0,0.0,1.0,0.0,1.402386978473882e-18,-9.568369488545757e-19,0.7731726315789474,-0.00019684210526315794,0.00019947368421052667,0.0,0.0,0.0,30.55944538116455,3.499000072479248,False,True,False,True,True,False,False,1887.947510277514,3565432.366181986,1865.8795015912428,3481918.0405507404,1914.8953199501398,3666318.404629003,1870.9935003835838,3500597.076081765,-0.84687679823816,-0.008277533372844675,11.674583194579034,2,0.02,-0.010891638940700346,0.409658869074035,-0.003177455970388819
20,269,0.2000000000000001,0.06204546866315376,-0.027084943481021893,0.5722370440345126,-0.005763060508627096,0.21827464461438018,-0.0013490350767726444,0.9758694312029665,-0.004562545259740305,0.4508973165404626,-0.015608790963438273,0.3677695605810768,0.03472169660939692,0.12524869807306407,-0.13914277176552006,3.016177269661113,-0.06817147422546961,30.55944538116455,0.0686682909727096,-0.0220313947647809,0.5436881184577942,,,,,,,,0.7467458116045504,0.7245885276729362,0.7750374384989314,0.777126379491383,110700.0,107100.0,109500.0,108700.0,30.55944538116455,0.23045854593973764,0.07324852387536995,-0.005009665426744902,-0.2621060187662109,4.43664454617493,0.11701879369884383,11.026473953016655,30.556400060653687,0.05802842121319282,-0.000224210365754552,0.500065789285459,0.0,0.0,0.0,1.0,0.0,1.402386978473882e-18,-9.568369488545757e-19,0.7731726315789474,-0.00019684210526315794,0.00019947368421052667,0.0,0.0,0.0,30.55944538116455,3.499000072479248,False,True,False,True,True,False,False,1904.553845028549,3627904.0009522634,1880.2551561658693,3535192.2915296927,1929.254093363886,3722229.9902383965,1884.4597952905212,3551973.405245492,-0.811674246162339,0.02436632097938339,11.87726223658545,2,0.02,-0.010868783584894974,0.43875180738779573,-0.0031707882974008937
21,270,0.21000000000000033,0.06673730294227669,-0.026771487352810576,0.5734521381108912,-0.006386046181831008,0.23138336960016204,-0.0015345030667539392,0.9728404802365989,-0.005549682577168492,0.48024347815042434,-0.01728176982981653,0.4304613073058711,0.03718254101153194,0.13381483987741677,-0.08949584651637307,2.873555344379799,-0.0593014379207319,30.569599151611328,0.0733263865113258,-0.0219263862818479,0.5451792478561401,,,,,,,,0.7498388616109697,0.716678218536853,0.7723856503123689,0.7991663087712245,109900.0,106400.0,110700.0,110300.0,30.569599151611328,0.12422369372776162,0.052012414416396674,-0.007775075079487269,-0.3683408709781871,4.892932959860048,0.0999759579614059,11.027238927485396,30.56710124015808,0.05802842121319282,-0.000224210365754552,0.500065789285459,0.0,0.0,0.0,1.0,0.0,1.402386978473882e-18,-9.568369488545757e-19,0.7731726315789474,-0.00019684210526315794,0.00019947368421052667,0.0,0.0,0.0,30.55944538116455,3.4830000400543213,False,True,False,True,True,False,False,1920.4467762193979,3687667.0442181327,1885.8143890036781,3556439.223440495,1945.0176740124725,3784018.8240673738,1916.8146657025004,3674734.258980991,-0.7181487391072281,-0.007980203491311913,12.006057804332402,2,0.02,-0.013561306297673624,0.4676547033073125,-0.0031636871823594046
22,271,0.2200000000000001,0.07203982725535246,-0.026392882558493178,0.5748011108319031,-0.007014581824971868,0.2441301442688185,-0.002097409723910134,0.969714839101453,-0.00747132225672224,0.5090933222753226,-0.019265043347388294,0.4956753570238195,0.04007970761254977,0.14487909981766423,-0.039226717077251574,2.7021604144024813,-0.045479313120520254,30.57962989807129,0.0786653906106948,-0.0216253884136676,0.5464110970497131,,,,,,,,0.7647244184858006,0.7145632318258767,0.7523816173893328,0.8078562027834737,110300.0,110300.0,114100.0,111500.0,30.57962989807129,0.3026226772254975,0.024243077534009543,-0.010233317370369945,-0.1899418874804513,5.307124003983189,0.12402658390274698,11.00680595725272,30.57661747932434,0.0880284212131928,-0.000224210365754552,0.500065789285459,0.0,0.0,0.0,1.0,0.0,1.402386978473882e-18,-9.568369488545757e-19,0.9671726315789474,-0.00019684210526315794,0.00019947368421052667,0.0,0.0,0.0,30.599771976470947,3.4830000400543213,False,True,False,True,True,False,False,1938.657412119327,3758314.8535010014,1891.3575523726076,3577683.5579927256,1958.4054151378268,3836227.387685055,1954.4562166657854,3819716.375598265,-0.7575152237670837,-0.026951144914242248,12.216255275560057,2,0.02,-0.01352920269484015,0.49636240764294753,-0.003156197803787574
23,272,0.23000000000000034,0.07791878598382326,-0.02596129608215253,0.5762333316500412,-0.00756431304305707,0.256372293684072,-0.003091521202105846,0.9665435689590053,-0.010431572037740791,0.5369784008051562,-0.021441649088536612,0.5617595016054117,0.04360076211753947,0.15494089324150906,-0.016264934729248667,2.5430140645087835,-0.029368128797459675,30.589470386505127,0.0842248946428299,-0.0213260669261217,0.5471914410591125,,,,,,,,0.7768069099438208,0.7213079107064746,0.7365114848226588,0.8036135806808136,111500.0,109900.0,112800.0,112800.0,30.589470386505127,0.6188653915598241,0.0037948928511807797,-0.012392208016665168,0.12630082685387523,5.724970741760631,0.19266222501570177,10.983481905365,30.58677124977112,0.0880284212131928,-0.000224210365754552,0.500065789285459,0.0,0.0,0.0,1.0,0.0,1.402386978473882e-18,-9.568369488545757e-19,0.9671726315789474,-0.00019684210526315794,0.00019947368421052667,0.0,0.0,0.0,30.599771976470947,3.4830000400543213,False,True,False,True,True,False,False,1961.886040063076,3850040.5899281166,1903.8019515011918,3625332.5391759304,1966.4947304016703,3867713.277204901,1983.1243700396365,3932486.759770117,-0.7606648505425762,0.026551239097116236,12.350771763454762,2,0.02,-0.016206401146578387,0.5196905464118228,-0.008559509140380363
24,273,0.24000000000000013,0.08435300388667288,-0.025494644860064627,0.5777078344489766,-0.007953362652094436,0.26796049973936825,-0.004459625359991332,0.963386748063103,-0.014265401991865783,0.5633866196785776,-0.02361316377130277,0.6283351002658893,0.047728796428138535,0.16113333015660997,-0.01589460918941619,2.413552509389193,-0.01015667148966641,30.599771976470947,0.0904399305582046,-0.0208186451345682,0.5487152338027954,,,,,,,,0.7730765692729604,0.7328605584021841,0.7373493480958092,0.795244578148653,115400.0,107500.0,110700.0,115800.0,30.599771976470947,0.8349906732423491,0.0022762820746409316,-0.014574578384081821,0.3424261085364003,6.160369027942139,0.2256830936093399,10.924573804966375,30.59680199623108,0.0880284212131928,-0.000224210365754552,0.500065789285459,0.0,0.0,0.0,1.0,0.0,1.402386978473882e-18,-9.568369488545757e-19,0.9671726315789474,-0.00019684210526315794,0.00019947368421052667,0.0,0.0,0.0,30.599771976470947,3.4830000400543213,False,True,False,True,True,False,False,1982.0951049413607,3929816.0206357148,1924.9135037707952,3706892.48644129,1972.569288980331,3891667.6424288205,1995.5090605753783,3982363.976038964,-0.6181189202971709,0.07786979631793978,12.547614165700669,2,0.02,-0.01617208345199098,0.542882514156399,-0.005842226559867027
25,274,0.25000000000000033,0.09134681364708029,-0.025010343447912895,0.579211768329454,-0.008131392502754105,0.27883132921120424,-0.006013383856794454,0.9602868371069501,-0.01849089242626357,0.5880121618006449,-0.025531516276387962,0.6952738531085081,0.05202622479866398,0.1636324229476625,-0.012764694846735133,2.291725438100959,0.01691033747184756,30.6096453666687,0.0975475013256073,-0.0202989000827074,0.5502287149429321,,,,,,,,0.760586798770693,0.7390905953841995,0.7421286972376392,0.7958918877288255,113600.0,112400.0,114500.0,113600.0,30.6096453666687,0.8560050859207617,0.02056464714336104,-0.01786513527397597,0.3634405212148131,6.51937823479613,0.16704038850107322,10.819555098576112,30.60664248466492,0.12202842121319281,-0.000224210365754552,0.500065789285459,0.0,0.0,0.0,1.0,0.0,1.402386978473882e-18,-9.568369488545757e-19,1.1501726315789473,-0.00019684210526315794,0.00019947368421052667,0.0,0.0,0.0,30.629554510116577,3.49399995803833,False,True,False,True,True,False,False,1988.1951477485507,3953404.866999473,1947.1000416413985,3792895.38182621,1977.921298477213,3912904.9004456066,1994.4767283806152,3978545.4277609587,-0.5328572637562825,0.05567156241584684,12.600100918234759,2,0.02,-0.016140232524304424,0.5633640332092095,-0.013912244760049396
26,275,0.2600000000000001,0.09892061016260233,-0.024519215069634625,0.5807594430817076,-0.008092276205882489,0.2890069481499905,-0.007452597407115615,0.9572637869358288,-0.02235434391894612,0.6108092840360033,-0.02693090162789035,0.7623301156660106,0.0557762679627857,0.16468961716868646,0.007909596896251859,2.143441457399706,0.056175025377456944,30.61950945854187,0.1047479063272476,-0.0198601633310318,0.5519018769264221,,,,,,,,0.753026475963354,0.7384504192041812,0.7345960732917516,0.8076572645284308,112800.0,114100.0,114500.0,114100.0,30.61950945854187,0.7469679895346217,0.04253329165823367,-0.023144362305889926,0.2544034248286732,6.747137646335702,0.0941574957362096,10.690579263705438,30.616944074630737,0.12202842121319281,-0.000224210365754552,0.500065789285459,0.0,0.0,0.0,1.0,0.0,1.402386978473882e-18,-9.568369488545757e-19,1.1501726315789473,-0.00019684210526315794,0.00019947368421052667,0.0,0.0,0.0,30.629554510116577,3.49399995803833,False,True,False,True,True,False,False,1981.0706259963526,3924697.497211297,1957.2364371561812,3831834.945080408,1976.0226387886955,3905487.6472540116,1991.95915250794,3968137.481952832,-0.602551394656663,-0.06775668772458979,12.646829209891544,2,0.02,-0.01615448958734793,0.5854314292323618,-0.013924533786884795
27,276,0.2699999999999999,0.10709136379268372,-0.024021444217136246,0.5823753249072582,-0.007870446318035634,0.2985382216648677,-0.008431142652879203,0.9543279845595538,-0.02498950177974711,0.6318958309403877,-0.02757052399360999,0.8304250119714431,0.05839474411316419,0.16599189553536903,0.03547261703749539,1.9623673285023067,0.10488766840325292,30.629554510116577,0.1131535321474075,-0.0193107649683952,0.5534337759017944,,,,,,,,0.7503268940534809,0.7409243210355938,0.7192002387743224,0.8161676983038906,113200.0,110300.0,110700.0,114500.0,30.629554510116577,0.5810421184527773,0.051453534073234344,-0.02868068536128253,0.08847755374682872,6.937828409229234,0.11352550523100038,10.548163099611756,30.62681746482849,0.12202842121319281,-0.000224210365754552,0.500065789285459,0.0,0.0,0.0,1.0,0.0,1.402386978473882e-18,-9.568369488545757e-19,1.1501726315789473,-0.00019684210526315794,0.00019947368421052667,0.0,0.0,0.0,30.629554510116577,3.49399995803833,False,True,False,True,True,False,False,1971.6797425593813,3887334.132563673,1953.1530665263936,3815332.228810146,1962.1388925067745,3850962.338333006,1999.3121078349536,3997254.7868031417,-0.6817580392273648,-0.016372352843226468,12.608191862361203,2,0.02,-0.016174833886733634,0.6077656824581328,-0.01664168653443421
28,277,0.28000000000000014,0.11586220886659943,-0.023506029805870472,0.5840735037999489,-0.007526267314019429,0.30744391899712187,-0.008658297598416876,0.9514970445853767,-0.025666476962210704,0.6514042714393924,-0.02729277195004248,0.9028507128797522,0.05983047924214987,0.1673190341547279,0.048793297801092116,1.773034830334291,0.15124970004409133,30.640435218811035,0.1223801970481872,-0.0186694897711277,0.5551700592041016,,,,,,,,0.7428923764926401,0.7524236815540701,0.7144285260650662,0.8068274884492518,112400.0,111900.0,111900.0,115400.0,30.640435218811035,0.37849849670168867,0.047938838773244855,-0.030455342287437612,-0.1140660680042601,7.186197288946561,0.182010423756583,10.384893512508814,30.63668155670166,0.12202842121319281,-0.000224210365754552,0.500065789285459,0.0,0.0,0.0,1.0,0.0,1.402386978473882e-18,-9.568369488545757e-19,1.1501726315789473,-0.00019684210526315794,0.00019947368421052667,0.0,0.0,0.0,30.629554510116577,3.49399995803833,False,True,False,True,True,False,False,1965.7362600021554,3863901.5539100715,1950.4663092296855,3804722.5150322453,1943.2467150076473,3776884.3680274226,2016.126064548257,4064793.020565629,-0.5544997063998318,0.07464275053220235,12.58468585430306,2,0.02,-0.01619068733166404,0.6245748993525554,-0.01936025938538002
29,278,0.2899999999999999,0.12523433276686327,-0.022954104968512988,0.5858448566553984,-0.007124972254882148,0.3156778440791808,-0.008004069096807186,0.9488059171431116,-0.0240526243503752,0.669360378505747,-0.026078777401234012,0.9829349938222585,0.060589312846574025,0.16729220406520867,0.04159217459594943,1.5958097121357417,0.18077982313806207,30.649254083633423,0.1321092098951339,-0.0181650388985872,0.5568922162055969,,,,,,,,0.7290695824259698,0.7623604774819255,0.7262534557340459,0.7829478128254158,112800.0,112400.0,111500.0,116700.0,30.649254083633423,0.19247837964461784,0.04732789927501374,-0.0263792228441779,-0.30008618506133106,7.433214376694847,0.17244040005581537,10.188664032837835,30.646726608276367,0.16402842121319283,-0.000224210365754552,0.500065789285459,0.0,0.0,0.0,1.0,0.0,1.402386978473882e-18,-9.568369488545757e-19,1.3271726315789474,-0.00019684210526315794,0.00019947368421052667,0.0,0.0,0.0,30.65944981575012,3.5309998989105225,False,True,False,True,True,False,False,1958.193751173098,3834506.6748682824,1964.2513630962064,3858810.3984938106,1931.8722706472934,3732120.8674787357,2030.6919451869414,4123651.1294880966,-0.47455044499500243,0.13529026961288512,12.637389060015646,2,0.02,-0.013501954067347766,0.6414312235099401,-0.01667470624951041
30,279,0.30000000000000016,0.13523950114218508,-0.022345114476645986,0.5876566562208309,-0.006713191051278733,0.32313042785852814,-0.006566752616247675,0.9463078449521332,-0.020379606341846053,0.6856323435126436,-0.024069770702052563,1.0684775091832708,0.061316333112854685,0.16497851009260153,0.030535356533476884,1.4203617574281364,0.18514939053183,30.65944981575012,0.1426631510257721,-0.0173303447663784,0.5587450861930847,,,,,,,,0.7184786500602791,0.749781857556582,0.7349903547338132,0.7634012228785783,111100.0,114100.0,109100.0,116300.0,30.65944981575012,0.1428882190259611,0.06222905947256055,-0.018861515865593887,-0.34967634567998773,7.570883879634381,0.0840302283167433,9.958380694061626,30.657607316970825,0.16402842121319283,-0.000224210365754552,0.500065789285459,0.0,0.0,0.0,1.0,0.0,1.402386978473882e-18,-9.568369488545757e-19,1.3271726315789474,-0.00019684210526315794,0.00019947368421052667,0.0,0.0,0.0,30.65944981575012,3.5309998989105225,False,True,False,True,True,False,False,1943.5435822116958,3777604.116882492,1987.54133171361,3949883.970115778,1931.3255463587284,3729548.9238294214,2032.439647922633,4130935.108392711,-0.4531794024672715,-0.05772227182351433,12.508925056319384,2,0.02,-0.013515929608918963,0.6583418008152874,-0.011276419674915454
31,280,0.3100000000000004,0.14597248787719078,-0.021663707034266972,0.58946338441382,-0.006300558463901666,0.32965724083642806,-0.004667685399163168,0.9440681221395893,-0.015429377068112215,0.6999593318731873,-0.021534673125913673,1.1496073514920924,0.06236320049722762,0.16082692075133215,0.03920994118249802,1.2209028868830152,0.16603530279692474,30.66909527778625,0.1537010818719864,-0.0164676550775766,0.5605799555778503,,,,,,,,0.7184937051203716,0.7053275689801515,0.7161974735320458,0.7614832450457034,110300.0,114100.0,111100.0,116300.0,30.66909527778625,0.30186132589698744,0.08544432251499268,-0.012232130799254023,-0.19070323880896115,7.610447490445917,0.030590329221394107,9.729285442221983,30.666426181793213,0.16402842121319283,-0.000224210365754552,0.500065789285459,0.0,0.0,0.0,1.0,0.0,1.402386978473882e-18,-9.568369488545757e-19,1.3271726315789474,-0.00019684210526315794,0.00019947368421052667,0.0,0.0,0.0,30.65944981575012,3.5309998989105225,False,True,False,True,True,False,False,1925.6524652054616,3708405.6941690785,1995.3005523773463,3980103.6455783006,1930.396187908349,3726258.2626391486,2022.0246745370687,4088966.4160828795,-0.46626941169692326,-0.0868029549301553,12.301676634460494,2,0.02,-0.013527953705573668,0.6724783172051372,-0.013996633426820457
32,281,0.3200000000000002,0.1575876568908544,-0.02090496239204315,0.5912230893366985,-0.005855916424405477,0.3351177335267842,-0.002759843652483825,0.9421540193523114,-0.010307987806465631,0.7120319108884842,-0.018788480509829623,1.216149624695524,0.06380418105797597,0.15598296703549563,0.07525523443246802,0.9904343413528044,0.1342349552020077,30.67934250831604,0.1658088564872741,-0.0157229714095592,0.562293291091919,,,,,,,,0.7229315640440452,0.64919971188717,0.6745545925525382,0.7673453738823068,109500.0,113600.0,110700.0,114100.0,30.67934250831604,0.5877529670823367,0.09229163139160226,-0.009251396766211057,0.09518840237638831,7.6397180186365805,0.052830969947169695,9.53782150193918,30.676621913909912,0.21102842121319282,-0.000224210365754552,0.500065789285459,0.0,0.0,0.0,1.0,0.0,1.402386978473882e-18,-9.568369488545757e-19,1.4861726315789474,-0.00019684210526315794,0.00019947368421052667,0.0,0.0,0.0,30.702181816101078,3.5309998989105225,False,True,False,True,True,False,False,1914.44953406881,3665354.878652579,1970.1915487431522,3882614.4613641966,1915.4578868668,3670136.0029224935,2007.7481537743033,4031184.8975948794,-0.45995368754501254,0.031810689502621003,12.274344974028029,2,0.02,-0.010825600442198578,0.6838135818701755,-0.00587033340879431
33,282,0.32999999999999996,0.1702290510291877,-0.020076569499028238,0.5929110648225995,-0.005322971389968785,0.3394011363441928,-0.0012692193397751625,0.940625814926488,-0.0060563759172045225,0.7215667202042656,-0.01608704099814877,1.2698238861799758,0.06575310070886559,0.15037266370240665,0.12270248724234784,0.7452222479007046,0.10689893472582654,30.689209699630737,0.1783799976110458,-0.0147903058677911,0.5640209317207336,,,,,,,,0.7179871046496934,0.6184381029000382,0.6426759221778047,0.7568124040626263,109900.0,109900.0,107900.0,114500.0,30.689209699630737,0.8178254507618792,0.06857714207649532,-0.01074393416356181,0.3252608860559306,7.6758902056605285,0.09438824292480709,9.33372343143104,30.686267375946045,0.21102842121319282,-0.000224210365754552,0.500065789285459,0.0,0.0,0.0,1.0,0.0,1.402386978473882e-18,-9.568369488545757e-19,1.4861726315789474,-0.00019684210526315794,0.00019947368421052667,0.0,0.0,0.0,30.702181816101078,3.568000078201294,False,True,False,True,True,False,False,1914.8849406981626,3666958.066568783,1921.3095412153502,3693750.8626724905,1888.2240336632049,3567084.053682587,1993.9420591880762,3975555.3073553164,-0.36426416220005464,-0.03859802232751049,11.970340952074386,2,0.02,-0.010833671590957238,0.6951800939009937,0.00226778534708075
34,283,0.3400000000000002,0.18390089912824825,-0.019197984505703137,0.5945237217698761,-0.00465073989571086,0.3424238194800163,-0.0004273187349410789,0.9395339886719578,-0.0032441413524868915,0.7283265827318398,-0.013542170792352827,1.3267478951053675,0.06836770730775805,0.14164579616229125,0.15599534791678335,0.4935330416398285,0.10059071846053012,30.689209699630737,0.1783799976110458,-0.0147903058677911,0.5640209317207336,,,,,,,,0.6986049795378952,0.6285574244787536,0.640144172194735,0.72120451478647,110300.0,106800.0,106400.0,114100.0,30.689209699630737,0.8545999619736058,0.03317735915817119,-0.01591452714033791,0.362035397267657,7.647862166929896,0.12066749838668656,9.017071747437164,30.686267375946045,0.21102842121319282,-0.000224210365754552,0.500065789285459,0.0,0.0,0.0,1.0,0.0,1.402386978473882e-18,-9.568369488545757e-19,1.4861726315789474,-0.00019684210526315794,0.00019947368421052667,0.0,0.0,0.0,30.702181816101078,3.568000078201294,False,True,False,True,True,False,False,1920.654317341581,3688421.877730456,1875.490426635708,3517845.3262358676,1865.6764928173632,3480830.715992462,1976.5781714870377,3906800.392219605,-0.36426416220005464,-0.03859802232751049,11.970340952074386,2,0.02,-0.010833671590957238,0.6951800939009937,0.00226778534708075
35,284,0.35,0.19834368143260822,-0.018296953048030935,0.5960709605215588,-0.0038242639539634153,0.3441078837987929,-0.00017582528876560301,0.9389223122272655,-0.0017450826128338796,0.7320952502480008,-0.011101318847916614,1.4027872303689604,0.07142038781618049,0.12669333423672882,0.16195499100867394,0.2152903504735077,0.11948800143424407,30.702181816101078,0.2055617421865463,-0.0129595212638378,0.5671840906143188,,,,,,,,0.6746604143795774,0.6537722560413728,0.6488255654680369,0.6816013108614588,109100.0,106000.0,106000.0,110700.0,30.702181816101078,0.6917524448379512,0.022474695969204386,-0.021208054679432008,0.1991878801320024,7.498918953606229,0.13394944581398655,8.60232694532111,30.706381797790527,0.2620284212131928,-0.000224210365754552,0.500065789285459,0.0,0.0,0.0,1.0,0.0,1.402386978473882e-18,-9.568369488545757e-19,1.6191726315789474,-0.00019684210526315794,0.00019947368421052667,0.0,0.0,0.0,30.72941493988037,3.568000078201294,False,True,False,True,True,False,False,1917.7476120934366,3676773.002644015,1850.782721186639,3424151.842096216,1857.5981859819358,3449068.159244562,1950.7450650786093,3805981.0544347386,-0.06473231701319548,0.13148972915943602,11.290005036950149,2,0.02,-0.008122506179155234,0.7008672271015867,-0.005876880338681142
36,285,0.3600000000000002,0.21301652038901342,-0.017403186027647045,0.5975620972134731,-0.002877248228606972,0.34437415163118357,-0.0001942165519078576,0.9388280606217863,-0.0008116456839469523,0.7326748516486544,-0.008596853234380501,1.495328410416323,0.07415239915525738,0.10446363090201763,0.1491838074794694,-0.11789321143417035,0.14896575432486048,30.71962070465088,0.2202489227056503,-0.0120997484773397,0.5685290098190308,,,,,,,,0.6600458954133495,0.6523921098364889,0.6382526157077704,0.6660317533513833,109100.0,106000.0,106000.0,110700.0,30.71962070465088,0.43967189281616037,0.051659639297862714,-0.0211550888285896,-0.05289267188978828,7.254152102693255,0.1232853322455053,8.22525298978274,30.719353914260864,0.2620284212131928,-0.000224210365754552,0.500065789285459,0.0,0.0,0.0,1.0,0.0,1.402386978473882e-18,-9.568369488545757e-19,1.6191726315789474,-0.00019684210526315794,0.00019947368421052667,0.0,0.0,0.0,30.72941493988037,3.568000078201294,False,True,False,True,True,False,False,1894.9352562249414,3591012.711709538,1841.2258416885356,3389359.252765661,1850.33351807472,3422819.553581384,1918.8156483198445,3682592.9997658823,-0.11089268219295523,0.0827881381789762,11.016169605326205,2,0.02,-0.0054083760661663375,0.7037174383022231,-0.00044663039928662357
37,286,0.37,0.22725161627865154,-0.01653942935757525,0.5989932216884646,-0.0018775787374869558,0.34317261719850994,-3.0315061522042032e-05,0.9392704767979277,0.0006106972008784667,0.7299582161983114,-0.005823448343652102,1.5830021007211783,0.07590134200429322,0.07713538595634517,0.13737978025708555,-0.5083168416128285,0.16597520129068857,30.72941493988037,0.2354569435119629,-0.0110025079920887,0.5698782205581665,,,,,,,,0.6587042903451369,0.6105244962209663,0.60382460265946,0.676687370404613,106800.0,105300.0,106400.0,107900.0,30.72941493988037,0.26740459834924035,0.09474049665088057,-0.013060776936258602,-0.2251599663567083,6.976210793608258,0.08526889421703299,7.952868915783063,30.72668719291687,0.2620284212131928,-0.000224210365754552,0.500065789285459,0.0,0.0,0.0,1.0,0.0,1.402386978473882e-18,-9.568369488545757e-19,1.6191726315789474,-0.00019684210526315794,0.00019947368421052667,0.0,0.0,0.0,30.72941493988037,3.5840001106262207,False,True,False,True,True,False,False,1854.5224053202885,3440964.511845408,1827.6339834411897,3340592.1116164406,1822.017709621817,3322140.8025299446,1888.9158431729206,3568166.491486607,-0.1811726273175509,0.03595169368714449,10.57844568691128,2,0.02,-0.0026926960599069436,0.7037197563256956,0.0022690659508095064
38,287,0.3800000000000002,0.24054321894960903,-0.015712286057479933,0.6003405844024703,-0.0008951134632292862,0.34052873357314367,0.0007330614844111168,0.9402333981537877,0.003492534734611616,0.7240302656031582,-0.002603836497043797,1.6450496045022573,0.07684357989983481,0.04882510045824598,0.13897169387705027,-0.9184931698959973,0.1597556285057711,30.74132513999939,0.2512383162975311,-0.0100584831088781,0.5708723664283752,,,,,,,,0.6611563134887146,0.5580862227068727,0.5708353796618025,0.6871914913318313,103400.0,101700.0,100000.0,106800.0,30.74132513999939,0.31347797123086607,0.10505011960810684,-0.0006375869802886461,-0.17908659347508274,6.682401038037719,0.045488423220301014,7.7268312171233,30.73679280281067,0.2620284212131928,-0.000224210365754552,0.500065789285459,0.0,0.0,0.0,1.0,0.0,1.402386978473882e-18,-9.568369488545757e-19,1.6191726315789474,-0.00019684210526315794,0.00019947368421052667,0.0,0.0,0.0,30.72941493988037,3.5840001106262207,False,True,False,True,True,False,False,1813.1810511478684,3288599.1980994465,1798.3973593433266,3235204.2705233265,1771.413478756903,3141767.5065271794,1866.450874589169,3483249.466961888,-0.14809475291609697,0.05072924080105506,10.179482632451734,2,0.02,-0.002691681019392098,0.698025149420606,0.0022682106021850476
39,288,0.39,0.25283411091780666,-0.01490675496042555,0.6015589276194172,2.8073046512774837e-05,0.33655160581946375,0.002336638117005073,0.9416621240947065,0.008390282828521669,0.7151779434864762,0.0011609298412415306,1.6790768638257307,0.07789243616178687,0.02342395257853394,0.15118012627826666,-1.2843129500064001,0.14085425156105758,30.749839544296265,0.2677895724773407,-0.0089139062911272,0.5715326070785522,,,,,,,,0.6530729910613426,0.5402344332925508,0.5672566377062698,0.6714516130411368,101700.0,101400.0,98000.0,106000.0,30.749839544296265,0.5674024300613344,0.06167105473686811,0.008455316706046087,0.07483786535538549,6.36439777759222,0.022548623828029215,7.506562663305709,30.74658703804016,0.3180284212131928,-0.000224210365754552,0.500065789285459,0.0,0.0,0.0,1.0,0.0,1.402386978473882e-18,-9.568369488545757e-19,1.7301726315789474,-0.00019684210526315794,0.00019947368421052667,0.0,0.0,0.0,30.765289783477783,3.5840001106262207,False,True,False,True,True,False,False,1787.4933398363028,3194511.240127962,1757.8627378830743,3090744.7909028754,1721.7656471999785,2965212.479889805,1848.560184062062,3416775.0481883287,-0.030462474816967067,0.03327816263487542,9.927555649686365,2,0.02,2.297175942853088e-05,0.6838167504492966,-0.0004460493139614877
40,289,0.40000000000000024,0.26464530772056294,-0.014087795443043996,0.6025817106832105,0.0008905231789932959,0.3313761044659575,0.00476849909443964,0.943486272170306,0.015261815826120524,0.7037444692388537,0.005451352004714476,1.699751709608264,0.07985727501409111,0.0028236389277760225,0.16295183434214452,-1.5483472297091319,0.12679062570788738,30.765289783477783,0.3017575442790985,-0.0068551143631339,0.5727088451385498,,,,,,,,0.6301901442787817,0.5713059515374022,0.5974896839775081,0.630693293812394,102400.0,99000.0,98000.0,104900.0,30.765289783477783,0.8363440526418354,-0.0038197785694136285,0.009887880469556926,0.34377948793588664,6.077765053742549,0.009329967871811066,7.323006205576139,30.76701164245605,0.3180284212131928,-0.000224210365754552,0.500065789285459,0.0,0.0,0.0,1.0,0.0,1.402386978473882e-18,-9.568369488545757e-19,1.7301726315789474,-0.00019684210526315794,0.00019947368421052667,0.0,0.0,0.0,30.765289783477783,3.568000078201294,False,True,False,True,True,False,False,1777.0381397665483,3157043.7834867816,1720.1191050728094,2958643.9763379907,1695.7165116115054,2873517.891482239,1827.1727939482328,3338574.0479420605,-0.0934820341246354,0.00018076645481407416,9.398075849487459,2,0.02,0.002732712158794625,0.6696641147494737,0.013103147535697574
41,290,0.41000000000000003,0.27697047636819927,-0.013209945929582757,0.6033241658868772,0.0017256418222025404,0.3250760874547846,0.007781334611990661,0.9456542763383704,0.023493589860930295,0.6899120422834584,0.0101153829899764,1.7240757115059553,0.08280759405608903,-0.0141159647927667,0.16630286554612167,-1.7005466493651535,0.1189833326199908,30.765289783477783,0.3017575442790985,-0.0068551143631339,0.5727088451385498,,,,,,,,0.6067469050901642,0.618585217502472,0.6389971951337339,0.5917312711421949,101700.0,96500.0,97100.0,103100.0,30.765289783477783,0.8975230818434035,-0.03651783971555062,0.008097118385219398,0.40495851713745495,5.896485768204981,-0.0051567880935541035,7.203363422203823,30.76701164245605,0.3180284212131928,-0.000224210365754552,0.500065789285459,0.0,0.0,0.0,1.0,0.0,1.402386978473882e-18,-9.568369488545757e-19,1.7301726315789474,-0.00019684210526315794,0.00019947368421052667,0.0,0.0,0.0,30.765289783477783,3.568000078201294,False,True,False,True,True,False,False,1765.8387914854497,3118396.832185232,1698.6674723879728,2885126.9214678956,1695.2292857228745,2872738.29702425,1797.0811145013913,3229952.9623010485,-0.0934820341246354,0.00018076645481407416,9.398075849487459,2,0.02,0.002732712158794625,0.6696641147494737,0.013103147535697574
42,291,0.42000000000000026,0.29096960593609694,-0.012233173668804248,0.6036950552269759,0.0025844860122062573,0.31762085536784535,0.011009455149518206,0.9481503596818185,0.03216079431579543,0.6735810857565967,0.014903638221840682,1.7609321139522418,0.08615888424705569,-0.031181591255017408,0.16158042974591266,-1.7964743355674684,0.09682769848028183,30.77938199043274,0.319651186466217,-0.0057648653164505,0.5729285478591919,,,,,,,,0.6047206885392232,0.6343863184606762,0.6632661039868967,0.580578522619586,99000.0,97700.0,98000.0,100000.0,30.77938199043274,0.708532137986643,-0.015176011967541394,0.012472834380387977,0.21596757328069444,5.773384790227388,-0.020585527092612868,7.167805583883377,30.782461881637573,0.3780284212131928,-0.000224210365754552,0.500065789285459,0.0,0.0,0.0,1.0,0.0,1.402386978473882e-18,-9.568369488545757e-19,1.8111726315789474,-0.00019684210526315794,0.00019947368421052667,0.0,0.0,0.0,30.79260230064392,3.568000078201294,False,True,False,True,True,False,False,1742.3149843539954,3036633.937667198,1697.6941853814665,2882386.099957066,1707.5135736033112,2916111.613978923,1760.5302348512469,3099965.2323408294,0.08067767802781223,-0.038882147985722856,9.16891707602027,2,0.02,0.005431305710097753,0.6358396627414158,0.023893066422096976
43,292,0.43000000000000005,0.30758189013618065,-0.011140195108862983,0.6036208212690113,0.003518232534193184,0.30891324023225614,0.014149570211046505,0.9509784549146665,0.04044607251985456,0.6544444484203833,0.01955867013851542,1.811988002872181,0.08918703410691967,-0.052448368486487706,0.15520736205804309,-1.9274299318762744,0.03815697812393414,30.77938199043274,0.319651186466217,-0.0057648653164505,0.5729285478591919,,,,,,,,0.6309049125464297,0.6024855475812341,0.6617957385728186,0.5980874781015084,99000.0,97700.0,98000.0,100000.0,30.77938199043274,0.4450541085166498,0.0308531661315095,0.02532488736477985,-0.04751045618929893,5.588732884167745,-0.029992085233438534,7.251601159646638,30.782461881637573,0.3780284212131928,-0.000224210365754552,0.500065789285459,0.0,0.0,0.0,1.0,0.0,1.402386978473882e-18,-9.568369488545757e-19,1.8111726315789474,-0.00019684210526315794,0.00019947368421052667,0.0,0.0,0.0,30.79260230064392,3.568000078201294,False,True,False,True,True,False,False,1714.519474204289,2939726.768289482,1708.0126244410667,2917560.5633994406,1721.9729969767775,2965824.974430197,1724.9386456993734,2975600.626350877,0.08067767802781223,-0.038882147985722856,9.16891707602027,2,0.02,0.005431305710097753,0.6358396627414158,0.023893066422096976
44,293,0.4400000000000003,0.32720612623368217,-0.00994841840749271,0.6030756591813023,0.004570477631279134,0.298875360240686,0.017123713332911735,0.9541275639121398,0.048035288654291165,0.6321945376980944,0.023930921284947306,1.8756627165704325,0.09150019809723722,-0.07903397510279306,0.15363478250056295,-2.159182208927183,-0.05341206274306795,30.79260230064392,0.3568248152732849,-0.0033515887334942,0.5728884935379028,,,,,,,,0.6673583808761414,0.5506807104431002,0.6487493323571577,0.6216140045153242,97400.0,98000.0,100300.0,96500.0,30.79260230064392,0.33214052406512984,0.06090192680419524,0.036205468907082504,-0.16042404064081894,5.3377909439054525,-0.02966417484754722,7.426802191700743,30.79655408859253,0.3780284212131928,-0.000224210365754552,0.500065789285459,0.0,0.0,0.0,1.0,0.0,1.402386978473882e-18,-9.568369488545757e-19,1.8111726315789474,-0.00019684210526315794,0.00019947368421052667,0.0,0.0,0.0,30.79260230064392,3.568000078201294,False,True,False,True,True,False,False,1703.0470491756162,2899871.576947602,1712.4527890530157,2932302.9708543364,1736.803655830341,3016532.787591812,1697.8078447898802,2882510.7602186473,-0.289951603795239,-0.05193074618374144,9.115977767697625,2,0.02,0.010828369279915146,0.6162649897115066,0.04818042459108838
45,294,0.45000000000000007,0.34957057615620896,-0.008709984554218193,0.6021026188846629,0.005779358516828359,0.2875001291896945,0.020117169713008982,0.9575518650254831,0.05523979453296572,0.6066869826223472,0.02805099035614696,1.946759357260178,0.09324234717315524,-0.10774468111022087,0.15772923313353543,-2.492527561840798,-0.14565889925420944,30.812142372131348,0.3761951327323913,-0.0024041188880801,0.5727424025535583,,,,,,,,0.6881795349965868,0.5202494959150294,0.637843890145891,0.6301404171254071,97400.0,98000.0,100300.0,96500.0,30.812142372131348,0.44933828464086906,0.06370999739714607,0.033688328787319644,-0.04322628006507974,5.120626902764172,-0.024376808316784605,7.588424487283753,30.80977439880371,0.4390284212131928,-0.000224210365754552,0.500065789285459,0.0,0.0,0.0,1.0,0.0,1.402386978473882e-18,-9.568369488545757e-19,1.8581726315789475,-0.00019684210526315794,0.00019947368421052667,0.0,0.0,0.0,30.82982325553894,3.578000068664551,False,True,False,True,True,False,False,1719.180493051354,2956388.1031242916,1698.9981897185644,2886743.386566172,1752.7876243618134,3072142.762480699,1682.854664488927,2832041.9699234855,-0.03662503746173584,0.0051551089809064865,9.184467165142587,2,0.02,0.013497646895034686,0.5743786595810582,0.04267620519369216
46,295,0.4600000000000003,0.3738397484528504,-0.007497488979879403,0.6008135119005634,0.007175451022762148,0.27481563112159607,0.0234170586131964,0.9611849578305753,0.06265783558898748,0.5779319642266992,0.03207130023329342,2.0160197148179817,0.0949392084723718,-0.13347465468402112,0.16238846158644354,-2.8785337338901735,-0.20718048454914448,30.819201231002808,0.3761951327323913,-0.0024041188880801,0.5727424025535583,,,,,,,,0.6839091332981286,0.5269143940072669,0.6276003106768644,0.6229990359374905,101400.0,95200.0,100000.0,96500.0,30.819201231002808,0.6804610445483034,0.05319773925391532,0.021236336648325308,0.18789647984235455,4.964595711901259,-0.024643731416788068,7.698462787287825,30.816447019577023,0.4390284212131928,-0.000224210365754552,0.500065789285459,0.0,0.0,0.0,1.0,0.0,1.402386978473882e-18,-9.568369488545757e-19,1.8581726315789475,-0.00019684210526315794,0.00019947368421052667,0.0,0.0,0.0,30.82982325553894,3.578000068664551,False,True,False,True,True,False,False,1751.7025351917507,3069880.3316809097,1670.1405461876743,2790056.584096821,1765.0818966677507,3115689.8972033,1678.2416422796503,2816669.3422971605,0.023185642055829625,-0.0033330732428207555,9.164012813867362,2,0.02,0.013503881758256137,0.5530743685378421,0.03999970985855717
47,296,0.4700000000000001,0.39890025587163014,-0.0063802234562064485,0.5993667304121703,0.008761491125575342,0.260806215170834,0.02710044039879396,0.9649709428432094,0.07047465164031776,0.5459785293922821,0.0360680995291277,2.075081561094016,0.0970336344611647,-0.1532968112612186,0.16354733374282826,-3.2609850729238303,-0.23781039615050337,30.82982325553894,0.3761951327323913,-0.0024041188880801,0.5727424025535583,,,,,,,,0.6656274726920605,0.5523200711942595,0.6164300171145272,0.6104438457181341,102000.0,93800.0,102000.0,95800.0,30.82982325553894,0.8264132415974813,0.037070772192792575,0.014427347496681953,0.33384867689153247,4.798145543529475,-0.04066195799784826,7.826114695777667,30.829314470291138,0.4390284212131928,-0.000224210365754552,0.500065789285459,0.0,0.0,0.0,1.0,0.0,1.402386978473882e-18,-9.568369488545757e-19,1.8581726315789475,-0.00019684210526315794,0.00019947368421052667,0.0,0.0,0.0,30.82982325553894,3.578000068664551,False,True,False,True,True,False,False,1777.0786354627157,3158170.3261566553,1639.049927443249,2686786.3779487177,1764.7482702365232,3114829.8741419376,1677.3746421025232,2813632.428787912,0.011533186709083765,0.0158734953734824,9.145127518730888,2,0.02,0.01623853070042489,0.52736057149605,0.042797224853279504
48,297,0.4800000000000003,0.42368749533459077,-0.00540179889413653,0.5979317500994575,0.010480641300296745,0.24540063652521113,0.030768684095746263,0.9688766546005596,0.07785728685807108,0.5108965454971454,0.039835617390345184,2.122275707343377,0.09944785502380636,-0.16790955175826006,0.16533631107230604,-3.5969079344284154,-0.26483004451627157,30.83944129943848,0.3761951327323913,-0.0024041188880801,0.5727424025535583,,,,,,,,0.6476211185435541,0.5707962141270426,0.6185904476869983,0.5939386042438596,102000.0,92600.0,101400.0,95800.0,30.83944129943848,0.772598198913259,0.005808661780250525,0.02208336278978911,0.28003363420731014,4.5734148132738115,-0.07541849028027992,7.9941459825784085,30.8363733291626,0.4390284212131928,-0.000224210365754552,0.500065789285459,0.0,0.0,0.0,1.0,0.0,1.402386978473882e-18,-9.568369488545757e-19,1.8581726315789475,-0.00019684210526315794,0.00019947368421052667,0.0,0.0,0.0,30.82982325553894,3.578000068664551,False,True,False,True,True,False,False,1781.563861013249,3173426.009545816,1617.4727530441069,2615860.7753799153,1751.8923088062572,3069282.7131537874,1672.1208861719147,2795836.4324342846,0.040147100283907555,-0.028692274607645674,9.226166388040951,2,0.02,0.02169716193549585,0.4961508800447359,0.06999561979640803
49,298,0.4900000000000001,0.4474192441542847,-0.004569517120322448,0.5966508605390889,0.012200108402700485,0.22858559819056157,0.03354521721461036,0.9728692101494681,0.08295008527215546,0.47296698607953747,0.042852474658457,2.1618738734497853,0.10150898701494789,-0.17923362848105837,0.17527349848735302,-3.8514119936540787,-0.31122965260841595,30.84938073158264,0.3761951327323913,-0.0024041188880801,0.5727424025535583,,,,,,,,0.6343130936469394,0.5783804929914411,0.6480007446748313,0.5670859692263923,100700.0,92600.0,98700.0,95200.0,30.84938073158264,0.5730761996340481,-0.04501513520303283,0.036805585099352306,0.08051163492809937,4.310035062780968,-0.11765341925549394,8.133198516053152,30.84699535369873,0.5010284212131928,-0.000224210365754552,0.500065789285459,0.0,0.0,0.0,1.0,0.0,1.402386978473882e-18,-9.568369488545757e-19,1.8751726315789474,-0.00019684210526315794,0.00019947368421052667,0.0,0.0,0.0,30.85939860343933,3.568000078201294,False,True,False,True,True,False,False,1770.1788827803261,3133326.100665684,1609.1310478690802,2588785.296069649,1743.9268645427865,3040939.5498428447,1656.713529791453,2744664.1100875577,0.107933994237988,-0.0375588403636537,9.226006289966335,2,0.02,0.02446989612155943,0.46484498755334214,0.06746128640614986
50,299,0.5000000000000003,0.4696836108198236,-0.003858863889361054,0.5956050611739417,0.013732974178607374,0.2105748759193202,0.034395150730117605,0.9768759392359017,0.08359453013647103,0.4329497055186073,0.044479118502839705,2.1980252562586164,0.1021597396422898,-0.18748973475940467,0.18865462723180554,-4.001734754323989,-0.3737601483637006,30.85939860343933,0.3761951327323913,-0.0024041188880801,0.5727424025535583,,,,,,,,0.6264590349453629,0.5902334003910519,0.6918382809221406,0.5330893495650575,101000.0,92600.0,100700.0,93200.0,30.85939860343933,0.3800820330795917,-0.0935653341742275,0.04592001000218205,-0.11248253162635707,4.037654175665198,-0.1475386501530636,8.240070426152867,30.856613397598267,0.5010284212131928,-0.000224210365754552,0.500065789285459,0.0,0.0,0.0,1.0,0.0,1.402386978473882e-18,-9.568369488545757e-19,1.8751726315789474,-0.00019684210526315794,0.00019947368421052667,0.0,0.0,0.0,30.85939860343933,3.568000078201294,False,True,False,True,True,False,False,1756.0147829358104,3083681.3048042827,1613.200538919656,2602143.8940068083,1761.119368632126,3102535.388795979,1630.496250254941,2658751.768550244,0.13994372260479038,-0.029088917119131252,9.157327681452944,2,0.02,0.02726224763096862,0.4280101596441314,0.06764995425734317
51,300,0.5100000000000001,0.4904161428776161,-0.003228732193683104,0.5947881448258955,0.014897326046902663,0.19188293747371304,0.03262085164380267,0.9807624014108333,0.07841666226877579,0.39214862536379785,0.04427526458145447,2.2306799276751965,0.10029855937875301,-0.1911415114678192,0.18227611421991954,-4.059550361275583,-0.42954607968273956,30.86926507949829,0.3761951327323913,-0.0024041188880801,0.5727424025535583,,,,,,,,0.6298075676791741,0.6134510964019253,0.7180261850796797,0.5096158455603792,100300.0,92600.0,103100.0,91500.0,30.86926507949829,0.28987840616692184,-0.10658066291401998,0.04495301548120173,-0.20268615853902697,3.7410440335052217,-0.16032448289338516,8.435246042483623,30.86655282974243,0.5010284212131928,-0.000224210365754552,0.500065789285459,0.0,0.0,0.0,1.0,0.0,1.402386978473882e-18,-9.568369488545757e-19,1.8751726315789474,-0.00019684210526315794,0.00019947368421052667,0.0,0.0,0.0,30.85939860343933,3.568000078201294,False,True,False,True,True,False,False,1747.5265853532069,3054009.639683147,1628.5283594047414,2652346.9418245493,1801.7222080229994,3248304.295706687,1598.4569041275035,2555163.205817222,0.1790934995899751,-0.0050416151952519805,9.227835646381054,2,0.02,0.03006861748920415,0.38821594734671916,0.06783597120390605
52,301,0.5199999999999999,0.5098349374824183,-0.0026394754545577765,0.5940935697551342,0.01558826013311326,0.17318788064842372,0.028283030514615264,0.9843591998490384,0.06770764638562579,0.35207106928822074,0.04225720680455046,2.2570151940383316,0.09541263978322775,-0.18942117200326175,0.1326744763678425,-4.077356825038114,-0.45468241004439647,30.879196882247925,0.3761951327323913,-0.0024041188880801,0.5727424025535583,,,,,,,,0.6460026786803004,0.6350986199344189,0.7111641024142661,0.5138780119931972,100300.0,94900.0,106400.0,90100.0,30.879196882247925,0.28255601673585173,-0.07900965434797536,0.03577548639379931,-0.21000854797009705,3.3711752750670625,-0.180934821577013,8.783369051471576,30.87657070159912,0.5640284212131927,-0.000224210365754552,0.500065789285459,0.0,0.0,0.0,1.0,0.0,1.402386978473882e-18,-9.568369488545757e-19,1.8561726315789475,-0.00019684210526315794,0.00019947368421052667,0.0,0.0,0.0,30.8995201587677,3.568000078201294,False,True,False,True,True,False,False,1747.0164545240316,3052174.860112951,1651.8383734054382,2729312.244898545,1839.79685806847,3385290.191776031,1569.564227770916,2463161.213340686,0.12169133979141034,0.02929741951585968,9.395119624311844,2,0.02,0.03288261938829024,0.34811921730279655,0.06526850657554085
53,302,0.5300000000000001,0.5283784154622326,-0.0020669770358676507,0.5933206152086506,0.01582642342926132,0.15500080583018594,0.02231304048481197,0.9875355197347354,0.053603448409465355,0.31373962414138634,0.03895712648000631,2.275324626586785,0.08831343984951842,-0.18447528873031363,0.04399220668122602,-4.113328981439279,-0.43503303754304323,30.889343738555908,0.3761951327323913,-0.0024041188880801,0.5727424025535583,,,,,,,,0.6584881570335076,0.6422158543506055,0.6890510662272475,0.547351467975495,100000.0,96200.0,106000.0,89300.0,30.889343738555908,0.31308369210639064,-0.04976987584350373,0.017769987217362802,-0.17948087259955814,2.9401105455967036,-0.2407634988441052,9.15789871767967,30.88643717765808,0.5640284212131927,-0.000224210365754552,0.500065789285459,0.0,0.0,0.0,1.0,0.0,1.402386978473882e-18,-9.568369488545757e-19,1.8561726315789475,-0.00019684210526315794,0.00019947368421052667,0.0,0.0,0.0,30.8995201587677,3.5409998893737797,False,True,False,True,True,False,False,1753.2853738825074,3073836.0893897642,1676.23990810712,2810452.536066692,1852.1183280381665,3429572.6262586946,1553.3192755980074,2412560.08087272,0.023912438372540645,0.008239809749938876,9.644679371390547,2,0.02,0.032959761402788765,0.30776528666837843,0.054442789540965715
54,303,0.5399999999999999,0.5466410623368909,-0.0015093478121629455,0.5922055351170834,0.01575163517566238,0.13731325591808405,0.016198960152536097,0.9902699376576288,0.03935796857095971,0.2770121498160262,0.035242275004844226,2.286765194463471,0.08098662585332753,-0.18058232292500853,-0.046706298907731925,-4.180444089266476,-0.3695081363190746,30.8995201587677,0.3761951327323913,-0.0024041188880801,0.5727424025535583,,,,,,,,0.6429249344125728,0.6424217005457044,0.6794448336700216,0.5942255175700552,100700.0,97400.0,105300.0,88500.0,30.8995201587677,0.3803134097975254,-0.06504677542398833,-0.009832782280458205,-0.11225115490842331,2.556589517990555,-0.3362580258645609,9.38900642861213,30.896368980407715,0.5640284212131927,-0.000224210365754552,0.500065789285459,0.0,0.0,0.0,1.0,0.0,1.402386978473882e-18,-9.568369488545757e-19,1.8561726315789475,-0.00019684210526315794,0.00019947368421052667,0.0,0.0,0.0,30.8995201587677,3.5409998893737797,False,True,False,True,True,False,False,1759.5922868261773,3095686.643034142,1696.4733338719025,2877859.451159386,1841.4641589846221,3390757.123602771,1554.5244956013642,2417263.7404019632,-0.055957637710253305,-0.021775124438240867,9.732144204790513,2,0.02,0.030281750333121617,0.2671831068758203,0.016052211438094943
55,304,0.5500000000000002,0.565269190761065,-0.000986309527650602,0.5904775173132539,0.015556433523935539,0.11947465193264244,0.01134256830678979,0.9926505684609237,0.02795974749750814,0.2404044765218863,0.03197106067616284,2.293672956104313,0.07515336300508664,-0.18072942603010006,-0.09698113159830116,-4.23377691707327,-0.27291378429130825,30.909770011901852,0.3761951327323913,-0.0024041188880801,0.5727424025535583,,,,,,,,0.5978782498519595,0.653975218357502,0.6895130987761064,0.6321136141926361,100700.0,98000.0,104200.0,89600.0,30.909770011901852,0.46278085773362376,-0.12316380713348135,-0.03780415683885732,-0.02978370697232499,2.2661950765303684,-0.42445053267641897,9.498259785849928,30.9065158367157,0.6240284212131928,-0.000224210365754552,0.500065789285459,0.0,0.0,0.0,1.0,0.0,1.402386978473882e-18,-9.568369488545757e-19,1.8071726315789474,-0.00019684210526315794,0.00019947368421052667,0.0,0.0,0.0,30.92237329483032,3.5409998893737797,False,True,False,True,True,False,False,1753.1613988222334,3073698.7804911127,1714.7861743502635,2939259.484365307,1829.0188763166866,3345450.5493653845,1569.3338938995003,2463764.8046087446,-0.03533316336122372,-0.1513932645627457,9.793171314906727,2,0.02,0.030335904443526768,0.22356994398769775,0.01883660529625917
56,305,0.5600000000000004,0.5847922734617419,-0.0005330759182513345,0.5879289026654174,0.01539180486645081,0.10046615448044957,0.008406136708413088,0.9947858970715774,0.02077927678889418,0.2017171408869441,0.029660840971989042,2.2967784960190887,0.07090195413493536,-0.18422059522415618,-0.09341055493768971,-4.217001583426476,-0.17597546502287825,30.909770011901852,0.3761951327323913,-0.0024041188880801,0.5727424025535583,,,,,,,,0.5558450194245569,0.6805732429898935,0.704788799577031,0.6485096595255965,99000.0,99000.0,104900.0,92000.0,30.909770011901852,0.4847073185195207,-0.16643606268429054,-0.048524287712260944,-0.007857246186428121,1.9409925096708869,-0.46483707083533093,9.673688480991538,30.9065158367157,0.6240284212131928,-0.000224210365754552,0.500065789285459,0.0,0.0,0.0,1.0,0.0,1.402386978473882e-18,-9.568369488545757e-19,1.8071726315789474,-0.00019684210526315794,0.00019947368421052667,0.0,0.0,0.0,30.92237329483032,3.5409998893737797,False,True,False,True,True,False,False,1725.60127187116,2978807.4471270386,1738.7411387227799,3022196.078938527,1829.4979900090793,3347350.9496424156,1589.204554447772,2525147.8160767816,-0.03533316336122372,-0.1513932645627457,9.793171314906727,2,0.02,0.030335904443526768,0.22356994398769775,0.01883660529625917
57,306,0.5700000000000002,0.6054263481769165,-0.00019031957351823458,0.5844792862238641,0.015297922299653887,0.07947561739928262,0.00701977464526324,0.9966946987800459,0.01700611633929933,0.15923604590916876,0.02834036641786356,2.2943515632672824,0.06693273670102476,-0.18870023695672009,-0.05952370743869341,-4.125670657345046,-0.11464532299131279,30.92237329483032,0.3761951327323913,-0.0024041188880801,0.5727424025535583,,,,,,,,0.5562565604764869,0.705156617182906,0.711975944863608,0.6514732392172242,96500.0,103100.0,106400.0,92600.0,30.92237329483032,0.43068654085179287,-0.14132609884989766,-0.03275651868515205,-0.061878023854155986,1.463531664453391,-0.44970122570263416,10.04154805303074,30.92694211006165,0.6240284212131928,-0.000224210365754552,0.500065789285459,0.0,0.0,0.0,1.0,0.0,1.402386978473882e-18,-9.568369488545757e-19,1.8071726315789474,-0.00019684210526315794,0.00019947368421052667,0.0,0.0,0.0,30.92237329483032,3.4830000400543213,False,True,False,True,True,False,False,1687.4219611439885,2847052.6646483857,1773.2271558131279,3145803.8306093314,1841.1353739003725,3390280.5224384544,1611.2223267109907,2594570.500754088,-0.5663419618560905,-0.10218847292548133,10.258461147479295,2,0.02,0.03037913328667224,0.18249430179974183,0.0023057600344312985
58,307,0.5800000000000004,0.6269474347409482,8.875238246170451e-06,0.5802111617587287,0.015198616013651484,0.056413907440826354,0.006034299932331596,0.9982735398390834,0.01422251669705386,0.11276332027781318,0.027644383643784475,2.2841579671665624,0.06200826306295115,-0.19385270028824825,-0.03250648799341776,-4.016266303209621,-0.10712904919462125,30.93959879875183,0.3761951327323913,-0.0024041188880801,0.5727424025535583,,,,,,,,0.6089814996355667,0.7103859082897903,0.715126879367731,0.6603676301804944,96500.0,103100.0,106400.0,92600.0,30.93959879875183,0.41514837206877164,-0.06923907184561284,-0.0021637196721632146,-0.07741619263717714,0.9003815923334171,-0.40028655178205846,10.575688662030997,30.939545392990112,0.6240284212131928,-0.000224210365754552,0.500065789285459,0.0,0.0,0.0,1.0,0.0,1.402386978473882e-18,-9.568369488545757e-19,1.8071726315789474,-0.00019684210526315794,0.00019947368421052667,0.0,0.0,0.0,30.92237329483032,3.4830000400543213,False,True,False,True,True,False,False,1667.5835652671244,2778642.6046678443,1814.6711692944527,3296767.1770644733,1857.3377790311654,3450120.8229720118,1640.5992466448583,2691608.8255750197,-0.08244399160919913,-0.07039305995520578,10.57452647173658,2,0.02,0.03043994338402136,0.09437516890719197,0.018901206648797905
59,308,0.5900000000000002,0.6487262714206533,5.339168364555657e-05,0.5753634596853223,0.014960802482865054,0.032023319159203284,0.004200640255662439,0.9993663172433515,0.009827709433504354,0.06378988892798096,0.02706914750392396,2.2661083970159877,0.055960682039619035,-0.20027547753410707,-0.034618781820664676,-3.9396158036095463,-0.1329806135972621,30.949278354644772,0.3761951327323913,-0.0024041188880801,0.5727424025535583,,,,,,,,0.6836194270348319,0.7060752064384777,0.7322513620237057,0.682203811814244,95200.0,104500.0,106000.0,96800.0,30.949278354644772,0.5334362031672861,-0.03813822640486278,0.018345954622589627,0.0408716384613374,0.3753187279663941,-0.36512594244860075,11.171379368130172,30.94710850715637,0.6840284212131928,-0.000224210365754552,0.500065789285459,0.0,0.0,0.0,1.0,0.0,1.402386978473882e-18,-9.568369488545757e-19,1.7241726315789474,-0.00019684210526315794,0.00019947368421052667,0.0,0.0,0.0,30.95942234992981,3.4830000400543213,False,True,False,True,True,False,False,1690.1940182497533,2857797.558550629,1852.7192075970092,3434077.4137356505,1878.624652073901,3529111.9652264058,1679.3506375781528,2822796.3060069964,-0.16527888095535198,-0.005718353037677815,11.146314358031033,2,0.02,0.0304550957552186,0.05292442560229085,0.018910615276652602
60,309,0.6,0.6699289886709339,-3.439176735358732e-05,0.5702842057909078,0.014484331622988239,0.007557476591435498,0.000906989928185722,0.9998661240657548,0.0025413521875258874,0.01480650186775532,0.02623987172527124,2.2422952339907294,0.049501612605859585,-0.20439082670487085,-0.06478910831627546,-3.8718153668423367,-0.14043175293947222,30.95942234992981,0.3761951327323913,-0.0024041188880801,0.5727424025535583,,,,,,,,0.7333267864698754,0.7300590851252163,0.7779087489771374,0.704869575884465,100300.0,110300.0,111100.0,98700.0,30.95942234992981,0.6903023879171615,-0.09931360600571824,0.012068069951780403,0.19773782321121286,-0.0813420411003319,-0.39872204584449633,11.693294741113402,30.95677089691162,0.6840284212131928,-0.000224210365754552,0.500065789285459,0.0,0.0,0.0,1.0,0.0,1.402386978473882e-18,-9.568369488545757e-19,1.7241726315789474,-0.00019684210526315794,0.00019947368421052667,0.0,0.0,0.0,30.95942234992981,3.4830000400543213,False,True,False,True,True,False,False,1747.621354381352,3058683.543608576,1882.4710495441786,3539857.5436137156,1910.7139953867918,3650478.0904867696,1717.8849682314342,2953421.9262961512,-0.2783297388427375,0.0033550734432478135,11.71588690181234,2,0.02,0.030461417346211824,0.014196160930819388,0.013380361697778924
61,310,0.6100000000000002,0.6897957629156379,-0.00019606116457884665,0.5653589749856436,0.013772795831442579,-0.015676321473414107,-0.0034522540465869163,0.9997762974696117,-0.006862696641329512,-0.03163023839636098,0.025061974595897884,2.2139499540479437,0.04339032604708414,-0.1983801340416308,-0.10782166103640216,-3.740326050712701,-0.08833667162127923,30.970359563827515,1.0130739212036133,0.0266458261758089,0.607862114906311,,,,,,,,0.7363970127768491,0.8025687439546578,0.8417593300924884,0.7221854738755076,103800.0,111500.0,112400.0,99700.0,30.970359563827515,0.6908582863190622,-0.18691605654456947,-0.014812754729537051,0.19829372161311365,-0.49471358324337705,-0.48900939847096564,12.059661258725995,30.966450452804565,0.6840284212131928,-0.000224210365754552,0.500065789285459,0.0,0.0,0.0,1.0,0.0,1.402386978473882e-18,-9.568369488545757e-19,1.7241726315789474,-0.00019684210526315794,0.00019947368421052667,0.0,0.0,0.0,30.95942234992981,3.414999961853028,False,True,False,True,True,False,False,1802.2679967711947,3250000.9980212315,1918.1131585230708,3675693.4685875094,1956.4468553964678,3828410.7386877076,1745.5024498196844,3045520.425909751,-0.1736039729495848,-0.09549516654886231,12.133794288261276,2,0.02,0.027693983970857546,-0.024542781818901224,-0.01152329693376163
62,311,0.62,0.7078862057903146,-0.0003482458720380415,0.5609415166309693,0.012943434443200473,-0.036641410065743195,-0.007694060616899074,0.9992150299131974,-0.016005659311797666,-0.0735278323636876,0.02370381970208322,2.17954539818457,0.037852312049690875,-0.17749845592027286,-0.14202272370174784,-3.530316478174136,0.014369930688704784,30.979421854019165,1.0130739212036133,0.0266458261758089,0.607862114906311,,,,,,,,0.7179540657782517,0.8819939015672973,0.8870909289293961,0.7539870379846132,105600.0,109100.0,113200.0,102000.0,30.979421854019165,0.5007538590765355,-0.18669905548786547,-0.03955859825940824,0.008189294370586811,-0.9290141013052505,-0.543528082356193,12.381077010279984,30.9765944480896,0.7400284212131928,-0.000224210365754552,0.500065789285459,0.0,0.0,0.0,1.0,0.0,1.402386978473882e-18,-9.568369488545757e-19,1.6121726315789475,-0.00019684210526315794,0.00019947368421052667,0.0,0.0,0.0,30.999462604522705,3.414999961853028,False,True,False,True,True,False,False,1822.7609535829235,3321184.8886901317,1982.376994708814,3936311.8512095357,2010.8362301868467,4045539.866878845,1768.2051356622414,3122475.173741597,-0.09363778724830674,-0.2642484534931693,12.367504880764177,2,0.02,0.024917935817690737,-0.06879082589523401,-0.028115476684205807
63,312,0.6300000000000002,0.7242190764023528,-0.00040650437022238885,0.5573070251041352,0.012174273040649572,-0.054733357138863965,-0.010497089543680007,0.998371603063385,-0.022216127970409057,-0.10975345559226249,0.022446299847659407,2.1380508795915008,0.03274822014390574,-0.1456869685788315,-0.14307775910999435,-3.33349668095115,0.11609945807451659,30.98927116394043,1.0130739212036133,0.0266458261758089,0.607862114906311,,,,,,,,0.7217412687836086,0.9019353854776798,0.8872205950267935,0.8188877330817699,103100.0,119300.0,119500.0,103400.0,30.98927116394043,0.30585524997786573,-0.08731322193372593,-0.043765972918127435,-0.186709314728083,-1.5279123080583208,-0.5068360190607473,12.869643715849788,30.987531661987305,0.7400284212131928,-0.000224210365754552,0.500065789285459,0.0,0.0,0.0,1.0,0.0,1.402386978473882e-18,-9.568369488545757e-19,1.6121726315789475,-0.00019684210526315794,0.00019947368421052667,0.0,0.0,0.0,30.999462604522705,3.414999961853028,False,True,False,True,True,False,False,1816.4221430252583,3298202.360412334,2071.396222520936,4302826.33675403,2061.3247360213336,4250509.291097885,1807.801763330038,3266750.2365836753,-0.09806825325441659,-0.1526457579325215,12.957547549069188,2,0.02,0.024904551121612654,-0.10745786019795218,-0.0225712347218341
64,313,0.64,0.7392787257147224,-0.0003146974894866734,0.5546278347919718,0.011614432010953737,-0.06990722060595103,-0.011069730399627175,0.9974244565605425,-0.023873478875099628,-0.14026366073998078,0.021492271609410384,2.0943121033887073,0.028215695021834672,-0.11296188248498056,-0.09867810443552741,-3.258327325097405,0.16993100720378498,30.999462604522705,1.0130739212036133,0.0266458261758089,0.607862114906311,,,,,,,,0.7591724073694633,0.8599004190958001,0.8620048803317157,0.8898848065631313,103100.0,125500.0,120200.0,106400.0,30.999462604522705,0.27137381605728944,-0.006286279835347807,-0.027533339419436156,-0.22119074864865923,-2.3593393814363104,-0.43030996417889983,13.53056081636332,30.996593952178955,0.7400284212131928,-0.000224210365754552,0.500065789285459,0.0,0.0,0.0,1.0,0.0,1.402386978473882e-18,-9.568369488545757e-19,1.6121726315789475,-0.00019684210526315794,0.00019947368421052667,0.0,0.0,0.0,30.999462604522705,3.414999961853028,False,True,False,True,True,False,False,1818.6746208672362,3307984.3512250865,2144.7056460450362,4604148.080543511,2096.399186296688,4394303.502906446,1876.6001177876205,3525807.1822191793,-0.4637014058082094,-0.08998235372104507,13.793388529957763,2,0.02,0.022124634043553974,-0.140535239846044,-0.028080897871041205
65,314,0.6500000000000002,0.7538832546187905,-6.909974183329244e-05,0.5529575537341554,0.011305246611664094,-0.08280232523118503,-0.00946149567722562,0.9964569466037699,-0.021040511535408684,-0.16635854613431036,0.02083464400031384,2.0582940625922177,0.024805679215436277,-0.08784795239398643,-0.02861322627658483,-3.305965870480089,0.1690086608357383,31.00925755500793,1.0130739212036133,0.0266458261758089,0.607862114906311,,,,,,,,0.7999916062635054,0.8267903168421572,0.857363505938701,0.907749970941238,107100.0,124500.0,121700.0,112400.0,31.00925755500793,0.3374164874055128,-0.04077283835797391,-0.004671228960050622,-0.15514807730043595,-3.1769605948430626,-0.3732059590680425,14.101837484710998,31.00644326210022,0.7900284212131928,-0.000224210365754552,0.500065789285459,0.0,0.0,0.0,1.0,0.0,1.402386978473882e-18,-9.568369488545757e-19,1.4781726315789474,-0.00019684210526315794,0.00019947368421052667,0.0,0.0,0.0,31.02301836013794,3.4200000762939453,False,True,False,True,True,False,False,1852.395945067623,3433794.072300817,2169.111139446872,4702346.818732027,2118.2835991232955,4485863.0913188,1954.403293106042,3823048.2120577516,-0.5439249527637213,-0.05600999950951968,14.351625207683483,2,0.02,0.02210673520915231,-0.17354657147571154,-0.011495664365335416
66,315,0.66,0.7689252952557664,0.0002718365231855984,0.5522196062505916,0.011153539988889396,-0.09473226615806969,-0.006426721271379454,0.9954195565428544,-0.015203212755727214,-0.1906833926865553,0.02024715616580472,2.035384494754844,0.022573117972160748,-0.07015063409093017,0.019777463684526493,-3.3719952771728683,0.13860650590403473,31.02301836013794,1.0130739212036133,0.0266458261758089,0.607862114906311,,,,,,,,0.815472080225147,0.8529130764862252,0.8885672316720264,0.8518591867368311,109500.0,122200.0,121500.0,114900.0,31.02301836013794,0.3294194727683928,-0.1412961508226415,0.011594573380980907,-0.16314509193755594,-3.611814669939937,-0.3343514026293547,14.380285009022373,31.026429653167725,0.7900284212131928,-0.000224210365754552,0.500065789285459,0.0,0.0,0.0,1.0,0.0,1.402386978473882e-18,-9.568369488545757e-19,1.4781726315789474,-0.00019684210526315794,0.00019947368421052667,0.0,0.0,0.0,31.02301836013794,3.4200000762939453,False,True,False,True,True,False,False,1906.4413401725337,3636224.510786506,2161.373148736444,4669771.865825817,2142.420819072948,4590410.966191168,1999.9512411456858,3998790.8143660235,-0.6740963407543372,0.018786680256227095,14.928533597112832,2,0.02,0.02208172583952675,-0.20919510651219456,-0.00596806643280477
67,316,0.6700000000000003,0.7850350174325734,0.0005963443318270801,0.5522161595241748,0.01097294744102998,-0.10735346492230971,-0.0030248472182214745,0.9941557615851438,-0.008486159527963949,-0.21658594817295207,0.019407815899071555,2.017172640671256,0.020198698614849242,-0.048420133391321785,0.010225560000913306,-3.3746508344508435,0.10543073464660789,31.02301836013794,1.0130739212036133,0.0266458261758089,0.607862114906311,,,,,,,,0.8127285285938461,0.9049758130171355,0.9248048472715158,0.7747333467321498,111500.0,123200.0,125300.0,115400.0,31.02301836013794,0.20283026942250879,-0.1768538732420936,0.01670435539650896,-0.28973429528344,-3.733080177463701,-0.32932271220687204,14.462915706149177,31.026429653167725,0.7900284212131928,-0.000224210365754552,0.500065789285459,0.0,0.0,0.0,1.0,0.0,1.402386978473882e-18,-9.568369488545757e-19,1.4781726315789474,-0.00019684210526315794,0.00019947368421052667,0.0,0.0,0.0,31.02301836013794,3.4200000762939453,False,True,False,True,True,False,False,1953.822015234695,3816551.6502328822,2166.0478833622306,4693434.4785577115,2179.0364730995925,4750307.249205136,1992.1804457782052,3968998.899832797,-0.6740963407543372,0.018786680256227095,14.928533597112832,2,0.02,0.02208172583952675,-0.20919510651219456,-0.00596806643280477
68,317,0.68,0.8022848789239565,0.0007668558662124836,0.552678507798837,0.010577019349271072,-0.12201650275903485,-0.00022269414497181762,0.992471687315793,-0.0028727700092550292,-0.2468267915417862,0.018101300175953593,1.9858583458252055,0.015869843004595867,-0.0072502787467611796,-0.046719171712455196,-3.3501523906299564,0.08053208070711394,31.02301836013794,1.0130739212036133,0.0266458261758089,0.607862114906311,,,,,,,,0.816227891414835,0.916785544542253,0.9302188218229906,0.7462312805305686,114100.0,127100.0,127700.0,110700.0,31.02301836013794,0.08825613552312304,-0.10338118067014809,0.013176642707427692,-0.4043084291828257,-4.068195663492746,-0.39695488203719176,14.544131572988586,31.026429653167725,0.7900284212131928,-0.000224210365754552,0.500065789285459,0.0,0.0,0.0,1.0,0.0,1.402386978473882e-18,-9.568369488545757e-19,1.4781726315789474,-0.00019684210526315794,0.00019947368421052667,0.0,0.0,0.0,31.02301836013794,3.4200000762939453,False,True,False,True,True,False,False,1981.2317735342544,3924017.603314425,2196.927901855582,4828307.3635185715,2218.472129664074,4922234.020692557,1955.4249728185746,3825638.7447728976,-0.6740963407543372,0.018786680256227095,14.928533597112832,2,0.02,0.02208172583952675,-0.20919510651219456,-0.00596806643280477
69,318,0.6900000000000003,0.8201111677124906,0.0006635774873077846,0.5533647163529983,0.009879085919469947,-0.13913872910166317,0.0013513682584393046,0.9902226979468809,0.00027931534499185684,-0.2823226290485635,0.01638914176278211,1.9315018883031887,0.009597826136837542,0.05808554687086193,-0.1038735240045429,-3.3987138883540684,0.06406738788851851,31.049738883972168,1.0130739212036133,0.0266458261758089,0.607862114906311,,,,,,,,0.8272272939407178,0.8723572541674918,0.9011943140606747,0.7735227189871245,114100.0,127100.0,127700.0,110700.0,31.049738883972168,0.12011285773359252,-0.01987876199415132,0.005882470825732662,-0.3724517069723562,-4.842255183125717,-0.4811289912727295,14.611370995533488,31.04648447036743,0.8380284212131928,-0.000224210365754552,0.500065789285459,0.0,0.0,0.0,1.0,0.0,1.402386978473882e-18,-9.568369488545757e-19,1.3171726315789474,-0.00019684210526315794,0.00019947368421052667,0.0,0.0,0.0,31.058972358703613,3.499000072479248,False,True,False,True,True,False,False,1995.4698708768483,3981553.006796291,2221.3747915449853,4933476.741260132,2239.092563485805,5011808.477157269,1934.3812234658683,3742159.294488716,-0.8595341946469937,-0.10796545998330082,15.516451381800648,2,0.02,0.022023243716828664,-0.274640905687575,-0.0004522723270230833
70,319,0.7000000000000001,0.8375785102017235,0.00023814570687661095,0.5541861910908454,0.008944510134328601,-0.15807239082012234,0.0015117138100072334,0.9873858565526569,0.0004661766434862145,-0.3218786521428006,0.014625313811537751,1.8631854984282477,0.004029367514907281,0.13444146399214021,-0.12551878614499892,-3.549992930956173,0.054059067908489765,31.058972358703613,1.0130739212036133,0.0266458261758089,0.607862114906311,,,,,,,,0.8177027637980393,0.8167335509121563,0.8615102769994607,0.795439801257575,114100.0,127100.0,127700.0,110700.0,31.058972358703613,0.28990953404597103,-0.042344369578358104,-0.0003477562549731618,-0.20265503065997775,-5.607977744885639,-0.46395803953842246,14.548405456300953,31.06691098213196,0.8380284212131928,-0.000224210365754552,0.500065789285459,0.0,0.0,0.0,1.0,0.0,1.402386978473882e-18,-9.568369488545757e-19,1.3171726315789474,-0.00019684210526315794,0.00019947368421052667,0.0,0.0,0.0,31.058972358703613,3.499000072479248,False,True,False,True,True,False,False,2005.0390883069558,4019568.243088886,2204.982622066849,4862903.040258168,2228.804750421804,4966862.763999064,1944.7512258891252,3781413.6701970566,-0.3555492491745307,-0.22130007122269274,15.657502009132502,2,0.02,0.016470692725719403,-0.3368158797217728,0.005031657520981609
71,320,0.7100000000000003,0.853924397527058,-0.0004349812441712002,0.5553223913511508,0.007961465404826269,-0.17762160232853785,0.0005411099710845644,0.9840665062153318,-0.0018511307676308804,-0.3632173139515197,0.013264402586784626,1.7980374132289745,0.0017684114497872607,0.20074604425399728,-0.11841841609970155,-3.715821303070398,0.04729345728120303,31.069522857666016,1.0130739212036133,0.0266458261758089,0.607862114906311,,,,,,,,0.7691178490597712,0.7961422672409266,0.8344501784698598,0.7592949827638903,114900.0,123700.0,126800.0,113200.0,31.069522857666016,0.4764461179418342,-0.15379881273145274,-0.0005512617506114581,-0.01611844676411456,-5.917933486356862,-0.3516955169166074,14.38323940686265,31.069909811019897,0.8380284212131928,-0.000224210365754552,0.500065789285459,0.0,0.0,0.0,1.0,0.0,1.402386978473882e-18,-9.568369488545757e-19,1.3171726315789474,-0.00019684210526315794,0.00019947368421052667,0.0,0.0,0.0,31.058972358703613,3.499000072479248,False,True,False,True,True,False,False,2003.848029490975,4014898.669498862,2156.208261221561,4653544.971540598,2197.9473675219447,4832715.3602302335,1958.7897717314036,3837055.4462932767,-0.1331102288358812,0.07893739199891664,15.4417537038778,2,0.02,0.016436287736653524,-0.3716740561566599,0.007756666883557264
72,321,0.7200000000000001,0.8691037081155129,-0.0011293409591822887,0.5572696562200123,0.007138764811749659,-0.19681773328585106,-0.0008596255312190776,0.9804137284560679,-0.00525485545428593,-0.4045104923997899,0.012535101440061716,1.738412843649707,0.0017222654042322251,0.24426761960730672,-0.11234825738328491,-3.787270007518584,0.04027611519925418,31.079549312591556,1.0130739212036133,0.0266458261758089,0.607862114906311,,,,,,,,0.7060010047335471,0.8028331300697178,0.8223604458540794,0.6870971642868896,114500.0,119300.0,123700.0,112800.0,31.079549312591556,0.581373062304656,-0.22506929080134494,0.008439671814091223,0.08880849759870733,-5.969776558955417,-0.2681839125199329,14.136716045383112,31.076144456863403,0.8790284212131928,-0.000224210365754552,0.500065789285459,0.0,0.0,0.0,1.0,0.0,1.402386978473882e-18,-9.568369488545757e-19,1.1391726315789474,-0.00019684210526315794,0.00019947368421052667,0.0,0.0,0.0,31.09178042411804,3.499000072479248,False,True,False,True,True,False,False,1979.8563192932752,3921988.9853972886,2116.6270937412028,4481981.284242117,2171.3370518770075,4716583.772048762,1943.2367114753754,3779156.2574494663,0.1514118250170604,-0.04963926707608904,15.262983072077006,2,0.02,0.013664602705347868,-0.41161747259191,-0.003177003222139246
73,322,0.7300000000000003,0.8839952592137453,-0.0014826646790556534,0.560775978515222,0.006577777813189183,-0.21535366316371893,-0.001746737636644028,0.9765124072476686,-0.007636140431431711,-0.4451967914173667,0.012149304879045794,1.6665942045491997,-0.0005671200027906118,0.2666136116799638,-0.12113586919770908,-3.750971717535535,0.03818230465872221,31.079549312591556,1.0130739212036133,0.0266458261758089,0.607862114906311,,,,,,,,0.6718972836735841,0.7871922317715208,0.8079548942888107,0.646160065081726,111500.0,122400.0,123700.0,107500.0,31.079549312591556,0.5994699395505203,-0.18432219665726998,0.020366379089611173,0.10690537484457162,-6.257293999381107,-0.2602542363834838,13.634169663614289,31.076144456863403,0.8790284212131928,-0.000224210365754552,0.500065789285459,0.0,0.0,0.0,1.0,0.0,1.402386978473882e-18,-9.568369488545757e-19,1.1391726315789474,-0.00019684210526315794,0.00019947368421052667,0.0,0.0,0.0,31.09178042411804,3.499000072479248,False,True,False,True,True,False,False,1937.4208108572518,3757043.440241232,2111.5043958483147,4455655.895507492,2164.7314665563563,4685722.567923865,1900.375619548049,3614493.1268181,0.1514118250170604,-0.04963926707608904,15.262983072077006,2,0.02,0.013664602705347868,-0.41161747259191,-0.003177003222139246
74,323,0.7400000000000001,0.9001042242360872,-0.0010739948327143233,0.566645489107789,0.006179576133365907,-0.2334273049585412,-0.0012382357899941411,0.9723538311287371,-0.006786511009138461,-0.4855902232498555,0.011221043394754352,1.5692190327078195,-0.007548688111048173,0.27947147141580786,-0.13478760351695623,-3.6835189589241777,0.05923046617391673,31.09178042411804,1.0130739212036133,0.0266458261758089,0.607862114906311,,,,,,,,0.6718438211852347,0.7271687677999579,0.7747252059612066,0.6615259929745545,107100.0,120700.0,124000.0,105600.0,31.09178042411804,0.56535598388146,-0.1059077203593551,0.016192840047876925,0.0727914191755113,-6.841520959516849,-0.25969958208159794,12.807419735504071,31.096721410751343,0.8790284212131928,-0.000224210365754552,0.500065789285459,0.0,0.0,0.0,1.0,0.0,1.402386978473882e-18,-9.568369488545757e-19,1.1391726315789474,-0.00019684210526315794,0.00019947368421052667,0.0,0.0,0.0,31.09178042411804,3.556999921798706,False,True,False,True,True,False,False,1898.2586454719656,3603270.2274788762,2120.416076856785,4491597.9531837795,2166.7839342504235,4691880.337469161,1860.0597960592293,3458617.7386784423,-0.6018402230434763,-0.05761693826874981,14.311795941476092,2,0.02,0.010904519586847124,-0.45122670235512474,-0.008608508710845187
75,324,0.7500000000000003,0.9188783215232605,0.00044467267623854933,0.5754486623315666,0.0056393923123557324,-0.25127502634572807,0.0011449067805728889,0.9678986246388436,-0.0011781609351034748,-0.5258993439645557,0.00849162619923851,1.4642499245547758,-0.014914209915258379,0.3002379211181966,-0.14590747992996184,-3.6470612806573786,0.11435393379785003,31.109519720077515,1.0130739212036133,0.0266458261758089,0.607862114906311,,,,,,,,0.6663999627671928,0.6699844340313666,0.7258830633519471,0.6895992084110261,107100.0,120700.0,124000.0,105600.0,31.109519720077515,0.4906696078989422,-0.09108477093707082,-0.015940118572120878,-0.0018949568070064761,-7.307698667364973,-0.2202607292566496,11.917507357328322,31.108952522277832,0.9130284212131928,-0.000224210365754552,0.500065789285459,0.0,0.0,0.0,1.0,0.0,1.402386978473882e-18,-9.568369488545757e-19,0.9561726315789474,-0.00019684210526315794,0.00019947368421052667,0.0,0.0,0.0,31.12956953048706,3.556999921798706,False,True,False,True,True,False,False,1873.0587625642024,3504932.060535036,2101.9135287150607,4419729.7001249045,2147.719392655794,4611126.612128805,1837.8299425508753,3375069.388696315,-0.1402070025215556,0.02242225178400499,14.030966379233076,2,0.02,0.010843246322880772,-0.5190233970656587,0.007670364460143644
76,325,0.7600000000000001,0.9409685521194178,0.0032008994748113978,0.5872296323083362,0.004557197298700436,-0.2688555404046951,0.0052489223357356195,0.9631554283503745,0.009352661983045208,-0.5656473204073592,0.002847151558001999,1.3921685164664062,-0.014135775434112412,0.34668648118906764,-0.16879159871530275,-3.6273607693420336,0.17096443046763318,31.119389533996586,1.0130739212036133,0.0266458261758089,0.607862114906311,,,,,,,,0.6366060793384358,0.6776749783571826,0.6833251362682569,0.683306375407316,106000.0,119300.0,120200.0,105300.0,31.119389533996586,0.38599430066287244,-0.11656988326353498,-0.046119382810301986,-0.10657026404307629,-7.3799814863585205,-0.17575783620694724,11.177459879653522,31.116934299468998,0.9130284212131928,-0.000224210365754552,0.500065789285459,0.0,0.0,0.0,1.0,0.0,1.402386978473882e-18,-9.568369488545757e-19,0.9561726315789474,-0.00019684210526315794,0.00019947368421052667,0.0,0.0,0.0,31.12956953048706,3.556999921798706,False,True,False,True,True,False,False,1844.399530437655,3400784.3837160175,2043.4122448921203,4185906.020683106,2089.1796356809846,4370011.687600548,1818.4296241678717,3308161.144172654,-0.09604705209120823,-0.039765466054892826,13.41450738818217,2,0.02,0.008113085403398787,-0.5524818322872698,0.007646728811649697
77,326,0.7699999999999999,0.9658021056735608,0.0070043008406577454,0.6013378735682893,0.0026564807163115727,-0.2858704479901808,0.010289814621734714,0.9582093454935344,0.02331512457573308,-0.6038628498448025,-0.0060032582794112,1.3743747634189807,-0.0010232675953534194,0.42368770149195933,-0.22124482186835956,-3.5790622512646135,0.1482324930524602,31.12956953048706,1.0130739212036133,0.0266458261758089,0.607862114906311,,,,,,,,0.6210131580883058,0.7293000331448937,0.6731923981266772,0.644514082702834,104200.0,110700.0,112800.0,102700.0,31.12956953048706,0.3008681044477447,-0.08871994783926583,-0.005827091196437064,-0.19169646025820408,-7.264964555985603,-0.17479956903222216,10.467663154119576,31.126691818237305,0.9130284212131928,-0.000224210365754552,0.500065789285459,0.0,0.0,0.0,1.0,0.0,1.402386978473882e-18,-9.568369488545757e-19,0.9561726315789474,-0.00019684210526315794,0.00019947368421052667,0.0,0.0,0.0,31.12956953048706,3.503999948501587,False,True,False,True,True,False,False,1794.6351886447562,3223766.208951026,1977.195655819095,3915813.1557366997,2004.019759104171,4023512.60666495,1782.694721575622,3182254.498552213,0.10122759933371661,0.01361772615787981,12.743685680632876,2,0.02,0.00541656120379118,-0.5875638475148326,0.007647045159366797
78,327,0.7800000000000001,0.9916926083236839,0.011361754782011681,0.6164963656903891,5.338876296147854e-05,-0.3019529446879668,0.0151252228633062,0.9532028346460375,0.03785946055461709,-0.6396122469936414,-0.016927664526613137,1.387591325678667,0.019137784434366725,0.5119966108041399,-0.28276297144647794,-3.4908653493774717,-0.02323399818761307,31.139434099197388,1.025909423828125,0.0273078009486198,0.6124709844589233,,,,,,,,0.6484737485866388,0.7143455985023766,0.7134972265385771,0.5912058442628322,101000.0,111100.0,111500.0,98000.0,31.139434099197388,0.29595353398357915,-0.027316731394057922,0.14283017763244524,-0.19661103072236963,-7.290829820144938,-0.22370225039708813,9.674607157388746,31.13656163215637,0.9130284212131928,-0.000224210365754552,0.500065789285459,0.0,0.0,0.0,1.0,0.0,1.402386978473882e-18,-9.568369488545757e-19,0.9561726315789474,-0.00019684210526315794,0.00019947368421052667,0.0,0.0,0.0,31.12956953048706,3.503999948501587,False,True,False,True,True,False,False,1744.4793512168826,3044004.0137703954,1940.5647505228949,3759283.3689315133,1928.3856868899709,3716807.885758039,1732.6924265915184,3001986.5607771147,-0.1966952796589796,-0.01458307362147905,12.064195527967193,2,0.02,2.28660042675082e-05,-0.6043741060987955,0.04005104949352022
79,328,0.7899999999999999,1.0164476692883837,0.015618980798018517,0.6311249083177717,-0.002533324414076612,-0.3167882373741208,0.018708181486538734,0.948308388064915,0.04962110193629155,-0.6722941509620686,-0.027132442133240633,1.3873083247560056,0.036148828321390575,0.5787749166403305,-0.26693578995435097,-3.3660583581711236,-0.32534491714619423,31.15082550048828,1.0384056568145752,0.027908993884921,0.6168382167816162,,,,,,,,0.6586581367558565,0.5554649897904071,0.8052641034230476,0.5108062775950094,97100.0,110700.0,109900.0,95200.0,31.15082550048828,0.3895498043602245,-0.0716962854581995,0.3430946829300747,-0.10301476034572414,-7.463920247827381,-0.30254688347816505,9.012746683606899,31.14674162864685,0.9430284212131927,-0.000224210365754552,0.500065789285459,0.0,0.0,0.0,1.0,0.0,1.402386978473882e-18,-9.568369488545757e-19,0.7621726315789474,-0.00019684210526315794,0.00019947368421052667,0.0,0.0,0.0,31.159827947616577,3.503999948501587,False,True,False,True,True,False,False,1736.409720844404,3014246.4566282206,1926.348279859621,3699238.6230252823,1901.210865964665,3603840.552366376,1679.5690043121574,2815432.693412587,-0.28507015853583173,-0.09869695221111494,11.78923460587822,2,0.02,2.291651534858858e-05,-0.6408823868757526,0.05096205638075717
80,329,0.8000000000000002,1.0381675462739752,0.019169656207066975,0.6437958253710935,-0.0037699153249177316,-0.33011159137225826,0.020502428315665327,0.9437117014286085,0.05575072116787665,-0.7015587988658801,-0.03249924276420945,1.350731953901084,0.04366488514121482,0.6044343318557805,-0.040387464179005,-3.1514129986611983,-0.657647886723319,31.159827947616577,1.050545334815979,0.0283697508275508,0.6207523941993713,,,,,,,,0.5610134196540029,0.3169247174795845,0.9253460717022396,0.38753999634001135,98000.0,107900.0,110300.0,93800.0,31.159827947616577,0.5494392510027626,-0.25740606339777444,0.48325717816961156,0.05687468629681398,-7.5831975654183035,-0.38551624359055947,8.732659377871736,31.156606197357178,0.9430284212131927,-0.000224210365754552,0.500065789285459,0.0,0.0,0.0,1.0,0.0,1.402386978473882e-18,-9.568369488545757e-19,0.7621726315789474,-0.00019684210526315794,0.00019947368421052667,0.0,0.0,0.0,31.159827947616577,3.503999948501587,False,True,False,True,True,False,False,1768.5939673977086,3132723.605320705,1887.600732748679,3565520.9418394794,1948.7599211786371,3794459.423348572,1620.9111147432627,2626627.937524575,-0.14865923554018412,-0.1631222912151314,11.504281055585238,2,0.02,-0.002688262230001891,-0.6747418388378837,0.042933720737194814
81,330,0.8100000000000004,1.055834257671208,0.02163315758737825,0.6536139047465344,-0.00200047118238942,-0.34168211595339754,0.020611649814658687,0.9395874039409933,0.05461090147250842,-0.7271074807568065,-0.02855186479206363,1.287121003984034,0.04225419831568526,0.5954571607259161,0.49490571759969243,-2.748476476798396,-0.9405236372658817,31.169087648391724,1.061723232269287,0.0287287198007106,0.6250858306884766,,,,,,,,0.3847219625884427,0.14734999943268104,1.0270636294709943,0.2545525259633039,106800.0,106000.0,119300.0,90900.0,31.169087648391724,0.7125565815158108,-0.39961025342427997,0.5107908914567473,0.2199920168098619,-7.63035745624102,-0.38916277478616407,8.664616401829502,31.16799759864807,0.9430284212131927,-0.000224210365754552,0.500065789285459,0.0,0.0,0.0,1.0,0.0,1.402386978473882e-18,-9.568369488545757e-19,0.7621726315789474,-0.00019684210526315794,0.00019947368421052667,0.0,0.0,0.0,31.159827947616577,3.515000104904175,False,True,False,True,True,False,False,1774.1706210766326,3161413.507331236,1794.7180739722107,3242807.607182419,2071.3746873715572,4302910.385983266,1547.8533936402496,2404923.1694910093,0.06169066036673776,-0.1278759657127354,11.52365847185331,2,0.02,2.3010038740349644e-05,-0.7059814062397927,0.03486998490093264
82,331,0.8200000000000002,1.069447379909876,0.022927951194098916,0.6603633520219523,0.00416964551914262,-0.3513216444223906,0.019543223488926315,0.9360415474925533,0.04585807695305458,-0.7486436621177152,-0.011875438043662947,1.2122566684268754,0.035488558570815655,0.5703727304057753,1.2788687318965681,-2.1541023130374217,-1.2020554280037166,31.169087648391724,1.061723232269287,0.0287287198007106,0.6250858306884766,,,,,,,,0.29647777685232474,0.11762996510969093,1.0549158308112951,0.16855350408956596,98000.0,93500.0,127900.0,82400.0,31.169087648391724,0.8033790791791626,-0.295737103805824,0.48125753422281115,0.3108145144732137,-7.786378180586659,-0.19896865579205236,8.37156003657681,31.16799759864807,0.9430284212131927,-0.000224210365754552,0.500065789285459,0.0,0.0,0.0,1.0,0.0,1.402386978473882e-18,-9.568369488545757e-19,0.7621726315789474,-0.00019684210526315794,0.00019947368421052667,0.0,0.0,0.0,31.159827947616577,3.515000104904175,False,True,False,True,True,False,False,1700.9854319012597,2905804.8804732566,1671.643223846832,2808072.706337894,2230.027418082379,4978533.175085577,1466.3932399897305,2157520.4182290724,0.06169066036673776,-0.1278759657127354,11.52365847185331,2,0.02,2.3010038740349644e-05,-0.7059814062397927,0.03486998490093264
83,332,0.8300000000000004,1.0797469168053793,0.023232777263082247,0.6644103176285867,0.015204022104425653,-0.3590384654715068,0.017778972659829907,0.9330295419518477,0.03004636852400172,-0.7660800106533164,0.01849223868974741,1.1294077232456985,0.02598800038779859,0.5401692116301298,2.0365531398820704,-1.5844701622397521,-1.539238037830183,31.181968688964844,1.082121968269348,0.0288072153925895,0.6323385238647461,,,,,,,,0.4285057893219685,0.15563630570733922,0.9772754020232097,0.13640943372586112,90900.0,86500.0,133600.0,77300.0,31.181968688964844,0.7756885361335641,0.024542251365846424,0.48049169078150966,0.2831239714276155,-8.073367642373169,0.10098819964300657,7.754217223614849,31.186259746551517,0.9650284212131928,-0.000224210365754552,0.500065789285459,0.0,0.0,0.0,1.0,0.0,1.402386978473882e-18,-9.568369488545757e-19,0.5711726315789474,-0.00019684210526315794,0.00019947368421052667,0.0,0.0,0.0,31.19933176040649,3.515000104904175,False,True,False,True,True,False,False,1602.2661812837734,2549427.3663253514,1561.3008091185282,2422839.952282412,2349.5321584807725,5502451.490850935,1390.0811888757294,1926195.201853436,-0.6229430812812975,0.4450628257745759,11.174698855660376,2,0.02,0.010908836186615041,-0.7317142943188067,0.032209777621409245
84,333,0.8400000000000002,1.0877623986563307,0.022879050637151992,0.6664719237953832,0.03021858686292575,-0.365218779311061,0.015434321593754834,0.9303031022002919,0.008067499070471763,-0.7799784468885949,0.060400642171715424,1.0385659150370248,0.015403383948064002,0.5056194589582497,2.4125327801185836,-1.3869404668466356,-1.9939628607295932,31.19933176040649,1.0919771194458008,0.0286262091249227,0.6357515454292297,,,,,,,,0.7289237679816156,0.15250234969812165,0.821465450350491,0.11734015323754034,90900.0,86500.0,133600.0,77300.0,31.19933176040649,0.6662792111305563,0.3439070820499631,0.5142760542339524,0.17371464642460777,-8.194364913875773,0.16468026084203383,7.152022238289633,31.199140787124637,0.9650284212131928,-0.000224210365754552,0.500065789285459,0.0,0.0,0.0,1.0,0.0,1.402386978473882e-18,-9.568369488545757e-19,0.5711726315789474,-0.00019684210526315794,0.00019947368421052667,0.0,0.0,0.0,31.19933176040649,3.515000104904175,False,True,False,True,True,False,False,1606.22863513852,2564245.9287058827,1468.468075648892,2136614.0589001616,2356.233961763417,5546612.034612609,1314.1096475609797,1716171.8074943419,-0.7311885534345812,1.1079227728893821,10.651303423747695,2,0.02,0.07091748451617541,-0.7549424881423654,0.03772546228332097
85,334,0.85,1.0944357526891557,0.02223033092642046,0.6673855178958213,0.04708490794991564,-0.37081929596849245,0.012176287629675568,0.9274307517008151,-0.019369078692516493,-0.7920588437487512,0.10916673705682495,0.9505391344206278,0.0055537136325366845,0.4673453518315164,2.2350895071831824,-1.76439582323629,-2.475012685331885,31.209269046783447,1.1001667976379397,0.0285890605300664,0.6388030052185059,,,,,,,,0.9998812112286816,0.10694765590524818,0.6590775644008497,0.10869293845477414,98000.0,81100.0,135400.0,71400.0,31.209269046783447,0.5777869249432623,0.4943707559310081,0.493044975129014,0.08522236023731378,-7.847952581527769,-0.21566304855186208,6.800519315606517,31.206684589385983,0.9810284212131928,-0.000224210365754552,0.500065789285459,0.0,0.0,0.0,1.0,0.0,1.402386978473882e-18,-9.568369488545757e-19,0.3961726315789474,-0.00019684210526315794,0.00019947368421052667,0.0,0.0,0.0,31.229654550552368,3.552000045776367,False,True,False,True,True,False,False,1779.6836763021206,3218982.287479022,1362.6265380447599,1868422.8770122472,2234.7230406961276,5032280.822160671,1221.0267253509273,1493713.108901968,-0.5443210168883734,0.9911634384941475,10.455797457146254,2,0.02,0.1037311924917237,-0.7638090244488798,0.029571913616221426
86,335,0.8600000000000002,1.1004362370525034,0.021588852689584985,0.6679505199448885,0.06303266127949066,-0.37740231739731245,0.007381171073012132,0.9238722275015925,-0.052094618192629706,-0.8054103389804134,0.15919687667587681,0.8803808839901367,-0.002308168848382195,0.43030505579968026,1.6314007936968418,-2.5925647922641986,-2.78774904423447,31.219754457473755,1.1077921390533447,0.0282960329204797,0.6413407921791077,,,,,,,,1.0539078491296856,0.13781834893196657,0.5300331888448302,0.1761760154654382,123200.0,67400.0,110300.0,63000.0,31.219754457473755,0.5701641458307312,0.4558925932724529,0.3302846371618862,0.07759958112478257,-7.13644811855493,-0.8005843272005315,6.587925029716437,31.216503858566284,0.9810284212131928,-0.000224210365754552,0.500065789285459,0.0,0.0,0.0,1.0,0.0,1.402386978473882e-18,-9.568369488545757e-19,0.3961726315789474,-0.00019684210526315794,0.00019947368421052667,0.0,0.0,0.0,31.229654550552368,3.552000045776367,False,True,False,True,True,False,False,2045.3959517560174,4245708.2691455325,1235.3041129425046,1562483.9970980003,2047.5467696428186,4231269.726844297,1117.5378465376161,1265290.9157013367,-0.09204898894779578,0.44128533682802273,9.803197578914457,2,0.02,0.13396616479499088,-0.7814334496859257,0.010484559308203318
87,336,0.87,1.106143447951484,0.021145673252614648,0.6688391403038787,0.07544416480414186,-0.38683136521467787,0.00041695921389725923,0.9190590291315177,-0.0904703301964868,-0.8239917320858801,0.20573599039898283,0.828743243918647,-0.008839855660271205,0.39693641231408083,0.8429777027069453,-3.5342846628728335,-2.7357243017892334,31.229654550552368,1.114257574081421,0.0280553717166185,0.6434007287025452,,,,,,,,0.8463495770563756,0.3448588308117848,0.4057009023249083,0.35989843529026283,127900.0,65100.0,107100.0,59600.0,31.229654550552368,0.5896529576410033,0.2717534576993016,0.04688225235118178,0.09708839293505472,-6.524663728524856,-1.238004038067564,6.361067575145222,31.22644114494324,0.9810284212131928,-0.000224210365754552,0.500065789285459,0.0,0.0,0.0,1.0,0.0,1.402386978473882e-18,-9.568369488545757e-19,0.3961726315789474,-0.00019684210526315794,0.00019947368421052667,0.0,0.0,0.0,31.229654550552368,3.552000045776367,False,True,False,True,True,False,False,2251.552867459879,5060915.479242241,1129.2573427414775,1287760.6947187847,1881.046929612428,3534540.8425965514,1044.6863622491553,1103931.830964444,0.3801520356934365,0.02951161441061123,9.000965703216128,2,0.02,0.15890435223294772,-0.805005984525142,-0.008668509266082603
88,337,0.8800000000000002,1.1117087707208326,0.020972803420434893,0.6705374031493804,0.08248630575596962,-0.40060930288943,-0.009048097153102001,0.9124836040932931,-0.13480608437297006,-0.8513370911768956,0.2457896376571954,0.7773163652975951,-0.01597976608341642,0.3610455301892378,-0.01973213387842622,-4.304041244104408,-2.240527732306861,31.229654550552368,1.114257574081421,0.0280553717166185,0.6434007287025452,,,,,,,,0.5027087771233314,0.6743665166388139,0.2636711969126373,0.5882448278527386,133600.0,61500.0,105300.0,56400.0,31.229654550552368,0.5485657654498814,-0.009628234061386465,-0.23487291184832082,0.05600120074393274,-6.35962208731322,-1.4971184915594644,6.073522085643227,31.22644114494324,0.9810284212131928,-0.000224210365754552,0.500065789285459,0.0,0.0,0.0,1.0,0.0,1.402386978473882e-18,-9.568369488545757e-19,0.3961726315789474,-0.00019684210526315794,0.00019947368421052667,0.0,0.0,0.0,31.229654550552368,3.552000045776367,False,True,False,True,True,False,False,2304.701606224371,5270917.315140746,1107.4970083101316,1194473.5054362742,1770.1532056580659,3111772.2990197283,1042.8397451250046,1084943.9135552929,0.3801520356934365,0.02951161441061123,9.000965703216128,2,0.02,0.15890435223294772,-0.805005984525142,-0.008668509266082603
89,338,0.89,1.1171222777495906,0.02104575541047857,0.6732883645181157,0.08341355823835453,-0.4191365691578372,-0.02079332356006557,0.9038442080314176,-0.18438538586926126,-0.8889779495838779,0.2779881814546925,0.7056066274753778,-0.02455209042758543,0.31353608698535373,-0.9625770014488417,-4.786180897952705,-1.4222480549680303,31.24413681030273,1.1251312494277954,0.0284644570201635,0.6459975838661194,,,,,,,,0.21829488926701945,0.9542575916746308,0.16729130750444948,0.7423096335609427,121000.0,76100.0,95200.0,70800.0,31.24413681030273,0.4484540593797034,-0.303848526932081,-0.39740797751618995,-0.04411050532624548,-6.584083451670719,-1.7114803506958869,5.687377140432407,31.24682664871216,0.9910284212131928,-0.000224210365754552,0.500065789285459,0.0,0.0,0.0,1.0,0.0,1.402386978473882e-18,-9.568369488545757e-19,0.23817263157894736,-0.00019684210526315794,0.00019947368421052667,0.0,0.0,0.0,31.25969409942627,3.424999952316284,False,True,False,True,True,False,False,2216.546460729505,4899924.272056786,1210.7902887232533,1435938.9973366717,1691.911625287728,2860064.993544303,1122.8388278053485,1247512.0159624713,0.29188804436061666,-0.49007816158158934,8.865067574542238,2,0.02,0.17312325892834837,-0.840413138434806,-0.03067568937841864
90,339,0.9000000000000002,1.1222613713762764,0.02128174955192345,0.6770370557268636,0.07858293713712866,-0.44135365697583046,-0.03396439958417596,0.8932402202240165,-0.23677574979863505,-0.9354953070205944,0.3019752796975239,0.6090725046356393,-0.03277685767731883,0.25348014448795403,-1.893554530134651,-4.946517140597351,-0.5625184371813561,31.25969409942627,1.1289103031158447,0.0291288625448942,0.6471740007400513,,,,,,,,0.10328667761020952,1.060082310244219,0.21559875712660842,0.7894400562927812,121000.0,76100.0,95200.0,70800.0,31.25969409942627,0.36804951835148025,-0.503062989126089,-0.4159916309807006,-0.1245150463544686,-7.0086174872766325,-1.8383579800827015,5.260266813152709,31.261308908462524,0.9910284212131928,-0.000224210365754552,0.500065789285459,0.0,0.0,0.0,1.0,0.0,1.402386978473882e-18,-9.568369488545757e-19,0.23817263157894736,-0.00019684210526315794,0.00019947368421052667,0.0,0.0,0.0,31.25969409942627,3.424999952316284,False,True,False,True,True,False,False,2046.7953809396945,4204781.55186036,1436.6776694269365,2090433.4480192848,1626.1819521433233,2656790.4764926457,1275.2465604824065,1622529.4538711102,0.5795948909501121,-0.7696201607206612,8.94762994578435,2,0.02,0.1661886248318122,-0.9329332542316044,-0.08076862980652058
91,340,0.91,1.1269308857059794,0.021580359731697592,0.6814002943072479,0.06928057895899623,-0.4650605639118696,-0.04725219355324446,0.8812979652067096,-0.2880707204352469,-0.9868548589887914,0.3180288392233096,0.49848840699783364,-0.03743019633193237,0.18948518881612536,-2.547123373891454,-4.732182595316557,0.06310651254697958,31.269574880599976,1.1328163146972656,0.0292624570429325,0.64725661277771,,,,,,,,0.11974168682847314,1.0119959721241243,0.4213369940969477,0.7973477096859024,107900.0,98000.0,88500.0,81100.0,31.269574880599976,0.3626391844658652,-0.5633509812259745,-0.3502373448230763,-0.1299253802400835,-7.631662431329394,-1.7491903559765838,5.000271747129874,31.27027702331543,0.9910284212131928,-0.000224210365754552,0.500065789285459,0.0,0.0,0.0,1.0,0.0,1.402386978473882e-18,-9.568369488545757e-19,0.23817263157894736,-0.00019684210526315794,0.00019947368421052667,0.0,0.0,0.0,31.25969409942627,3.424999952316284,False,True,False,True,True,False,False,1844.739374669332,3424202.3368623513,1729.0388742269945,3046743.051040764,1594.4485611777,2547573.6399733815,1481.7743682473315,2215947.6186356563,0.542744378189751,-0.9055462227084196,9.132047330942932,2,0.02,0.14743229838047506,-0.9814352815291322,-0.10058411583059566
92,341,0.9200000000000003,1.1309059787516467,0.021857408543177182,0.6856979230071668,0.05740930838301982,-0.48773053496191754,-0.05927156861727854,0.86908571368444,-0.33397053152028416,-1.0378223092066072,0.32702639968818115,0.38596137907455635,-0.03643133664507767,0.12975161906047047,-2.6664667114625447,-4.106877867100842,0.3555610220604778,31.27933168411255,1.1354432106018066,0.0295408256351947,0.6468155384063721,,,,,,,,0.16208583310348057,0.9103587705826744,0.6782289136640183,0.8244724511416737,91500.0,118800.0,94300.0,101000.0,31.27933168411255,0.4347108807889457,-0.5369347683761339,-0.2739536280592358,-0.057853683917002935,-8.492252010915145,-1.4515012477490572,4.985380166348549,31.27686619758606,0.9970284212131928,-0.000224210365754552,0.500065789285459,0.0,0.0,0.0,1.0,0.0,1.402386978473882e-18,-9.568369488545757e-19,0.11217263157894737,-0.00019684210526315794,0.00019947368421052667,0.0,0.0,0.0,31.299352884292603,3.424999952316284,False,True,False,True,True,False,False,1645.2341077071887,2715118.8858557953,1989.4818786605601,3974800.537875915,1631.0012201774948,2659659.274482148,1703.1110672472955,2923494.0758390687,0.5070680912959995,-0.9326750903698702,9.909722527028343,2,0.02,0.12013515290262697,-1.0275667838304057,-0.12615746810313588
