,Unnamed: 0,t,x,y,z,qx,qy,qz,qw,yaw,pitch,roll,vx,vy,vz,wx,wy,wz,ros_timestamp,x_poses,y_poses,z_poses,qx_poses,qy_poses,qz_poses,qw_poses,yaw_poses,pitch_poses,roll_poses,m1_thrust,m2_thrust,m3_thrust,m4_thrust,m1_erpm,m2_erpm,m3_erpm,m4_erpm,ros_timestamp_motors,thrust,torque_roll,torque_pitch,torque_yaw,ax,ay,az,ros_timestamp_image_accel,x_r,y_r,z_r,qx_r,qy_r,qz_r,qw_r,yaw_r,pitch_r,roll_r,vx_r,vy_r,vz_r,wx_r,wy_r,wz_r,ros_timestamp_r,Vbat,can_be_armed,is_armed,auto_arm,can_fly,is_flying,is_tumbled,is_locked,m1_rads,m1_rads2,m2_rads,m2_rads2,m3_rads,m3_rads2,m4_rads,m4_rads2,ax_body,ay_body,az_body,lag_samples,lag_seconds,rx,ry,rz
0,4906,1.9680647827798707e-15,0.043304102472800435,0.0058428129703769986,0.5783582481807112,-0.0044953372564006285,-0.002266945112620537,-0.0009679262616888372,0.9999868579244228,-0.007078649410484962,-0.003685671856164612,-0.013812962398096167,-0.007428682384332455,0.008690610600344978,-0.003313791915105319,0.029301144518128618,-0.012271052425681888,-0.015098815382921443,55.01944446563721,0.0454313308000564,0.0105177871882915,0.5722134709358215,,,,,,,,0.6151322754038915,0.47590620004488643,0.5466309773628732,0.6701165530263904,96500.0,98000.0,98000.0,95200.0,55.024317264556885,0.10485026361686156,-0.0017120881406121574,0.0017364651797465067,-0.3877219948485489,0.06815184421335993,-0.008959985187575749,9.67821128985479,55.01944446563721,4.736858161386911e-05,2.4737002666500644e-05,0.4998921050749327,0.0,0.0,0.0,1.0,0.0,1.402386978473882e-18,-9.568369488545757e-19,-0.00020210526315789473,0.00025210526315789427,-0.00018052631578947424,0.0,0.0,0.0,55.01944446563721,3.8949999809265137,False,True,False,True,True,False,False,1684.2567916559096,2836723.2507798686,1710.385721254116,2925411.4695240525,1710.4097986856725,2925499.2558701355,1661.577449435268,2760846.290598099,0.09468500972814002,-0.06279383300762242,9.67776618644866,3,0.03,-0.00899693096024226,-0.004688315809556178,-0.0019361308448459257
1,4907,0.00999999999999998,0.04333026642842027,0.00584363143240016,0.5791750292932845,-0.004680264899971549,-0.0021756958619810413,-0.00097110206818464,0.9999862091192836,-0.007079633209299439,-0.0035051509318557985,-0.01418190368797758,-0.007930425138537995,0.009323383694345209,0.003439477176033495,0.05775816414587656,-0.11105448150786089,-0.004937789467663986,55.02929663658142,0.0454313308000564,0.0105177871882915,0.5722134709358215,,,,,,,,0.5987113911641087,0.4883260773987368,0.5438029082114056,0.6254083932970693,98000.0,95800.0,98000.0,100700.0,55.03046154975891,0.6032268025825296,-0.0016874993084563476,0.003542054962627941,0.11065454411711914,0.07896550892387896,-0.058178904233155,9.831511945242024,55.02929663658142,4.736858161386911e-05,2.4737002666500644e-05,0.4998921050749327,0.0,0.0,0.0,1.0,0.0,1.402386978473882e-18,-9.568369488545757e-19,-0.00020210526315789473,0.00025210526315789427,-0.00018052631578947424,0.0,0.0,0.0,55.01944446563721,3.874000072479248,False,True,False,True,True,False,False,1721.3502041602928,2961761.173074232,1655.2664458565341,2734552.378533129,1693.5720952632798,2863897.1959367516,1745.8362648663367,3047364.6202762923,0.08375864529163429,-0.12626076735801595,9.767446523225255,3,0.03,-0.00899693096024226,-0.004688315809556178,-0.0019361308448459257
2,4908,0.019999999999997988,0.04334298457757813,0.005842312321165694,0.579871679032162,-0.004690742871501083,-0.0028233849830283865,-0.0009917173259244175,0.9999845208428461,-0.007118579034058557,-0.0048034853770677725,-0.014205723584764853,-0.008140337916076714,0.009865311389934931,0.005713663246547386,0.11031127899800117,-0.30731280690365864,0.000892348971342047,55.03972506523132,0.0451913923025131,0.0105570582672953,0.5722377300262451,,,,,,,,0.5495584841362389,0.5585659218375186,0.5870799606482524,0.5465327258638697,99000.0,94600.0,98000.0,101000.0,55.04122185707092,0.8662373177035674,0.038766854214341305,0.006191741145667843,0.37366505923815707,0.14568781989376792,-0.06334900923677442,9.896036786437948,55.03972506523132,4.736858161386911e-05,2.4737002666500644e-05,0.4998921050749327,0.0,0.0,0.0,1.0,0.0,1.402386978473882e-18,-9.568369488545757e-19,0.03279789473684211,0.00025210526315789427,-0.00018052631578947424,0.0,0.0,0.0,55.058841943740845,3.874000072479248,False,True,False,True,True,False,False,1734.8723832641335,3007210.077353202,1644.2558365647276,2696183.840231381,1696.679679379904,2873278.861351709,1777.9280192871747,3155900.8695584307,0.18622176662450604,-0.11138448984062549,9.919249043408389,3,0.03,-0.00899693096024226,-0.004688315809556178,-0.0019361308448459257
3,4909,0.030000000000003104,0.04333411823701702,0.005838275909273625,0.5803602268633166,-0.004403379690391019,-0.004440120771863227,-0.001029082188645035,0.9999799180806995,-0.007195139701025243,-0.008039226892211326,-0.013637947437336952,-0.007993531166532945,0.010256422544925476,0.0032471383912063933,0.17862933068422615,-0.5241743549737243,0.004702279046801948,55.05269765853882,0.0451913923025131,0.0105570582672953,0.5722377300262451,,,,,,,,0.47791780590425825,0.6665588071653443,0.6668174729037672,0.4521919378169827,99000.0,96200.0,98400.0,100300.0,55.05193758010864,0.8898532742866397,0.07620936662598454,0.008922156709688024,0.3972810158212295,0.16916308007841854,-0.04152602886819144,9.879799050679686,55.05269765853882,4.736858161386911e-05,2.4737002666500644e-05,0.4998921050749327,0.0,0.0,0.0,1.0,0.0,1.402386978473882e-18,-9.568369488545757e-19,0.03279789473684211,0.00025210526315789427,-0.00018052631578947424,0.0,0.0,0.0,55.058841943740845,3.874000072479248,False,True,False,True,True,False,False,1708.8553701003098,2921083.084975291,1701.9572857455887,2900826.801666721,1740.5066425739165,3031135.254735792,1737.3833297812673,3019937.6953900456,0.18936830759579162,-0.09258145517954101,9.953345160012045,3,0.03,-0.00899693096024226,-0.004688315809556178,-0.0019361308448459257
4,4910,0.04000000000000112,0.04330500241483197,0.005831953546313822,0.5806068352663168,-0.003790620932926054,-0.006548801100037358,-0.0010590280142248772,0.9999708110023813,-0.007260820913645895,-0.012257506833664384,-0.012420691888400502,-0.0077827405619159745,0.010497144003041439,6.97174272132116e-05,0.22475696608044654,-0.510718145697347,0.01266553631996302,55.058841943740845,0.0452416017651557,0.0104389544576406,0.5723125338554382,,,,,,,,0.4307334809798703,0.7276558489814031,0.7221110233823851,0.402514335887555,94600.0,103100.0,103400.0,94600.0,55.06108713150024,0.8301247236421483,0.017028962844951964,0.00988246575300256,0.3375524651767379,0.003379090574828922,-0.0456719969956713,9.940701287018607,55.058841943740845,4.736858161386911e-05,2.4737002666500644e-05,0.4998921050749327,0.0,0.0,0.0,1.0,0.0,1.402386978473882e-18,-9.568369488545757e-19,0.03279789473684211,0.00025210526315789427,-0.00018052631578947424,0.0,0.0,0.0,55.058841943740845,3.874000072479248,False,True,False,True,True,False,False,1648.49310092194,2722531.5617018826,1811.8844541806607,3295978.424988688,1825.7457927717437,3342991.4478884516,1647.8290711693437,2723027.829719865,0.09065453775761434,-0.1027132978574325,9.859359186545909,3,0.03,-0.00899730290102408,-0.010222705515419282,-0.001936210886142599
5,4911,0.04999999999999913,0.043268210619468304,0.005825165821690795,0.5806275359299605,-0.0029346142196451964,-0.008002164726305385,-0.0010398448054817777,0.9999631353814277,-0.007230068515868257,-0.015164458661265966,-0.010712716264784664,-0.007932703412555798,0.010639805790643088,0.00040111194293232966,0.21693789187970172,-0.03468047552998875,0.026288695356862336,55.069602251052856,0.045272059738636,0.0105533143505454,0.5721834301948547,,,,,,,,0.4435614838156881,0.6848046707123301,0.703342766784041,0.4350354747133938,90100.0,111500.0,111500.0,88800.0,55.071014165878296,0.7684035574223573,-0.15910376300975032,0.008554657702852768,0.2758312989569469,-0.3118813545747744,-0.09963290651307036,10.193172971328096,55.069602251052856,0.002047368581613869,2.4737002666500644e-05,0.4998921050749327,0.0,0.0,0.0,1.0,0.0,1.402386978473882e-18,-9.568369488545757e-19,0.1177978947368421,0.00025210526315789427,-0.00018052631578947424,0.0,0.0,0.0,55.08946752548218,3.8320000171661377,False,True,False,True,True,False,False,1584.4040864627286,2512513.768721061,1916.9635031863731,3677687.703604346,1915.5511617448929,3673607.397027146,1561.3739181917265,2439291.1895322064,-0.14264416497065513,-0.13755066985177547,10.168792483452652,3,0.03,-0.00623032724197714,-0.01575721166634627,-0.0019362489256236457
6,4912,0.060000000000004244,0.04324740317313474,0.005821034510733648,0.5804733887345392,-0.001997943196513104,-0.00732504915580477,-0.0009311264435661001,0.9999707420126824,-0.007017540854761533,-0.013811163120677861,-0.00883252448839379,-0.008559058319746661,0.010738295233914636,0.004877005984058968,0.16131598356459356,0.898633078390236,0.03937550911911057,55.080317974090576,0.0457207411527633,0.0105412416160106,0.5720989108085632,,,,,,,,0.510362057720213,0.5691896617409773,0.6204162988562415,0.5271427387822599,88200.0,112800.0,112800.0,86700.0,55.08083415031433,0.647673511534958,-0.34171809555230837,0.006868947251648385,0.15510125306954756,-0.5439178489032763,-0.17461537007886263,10.47490677408589,55.080317974090576,0.002047368581613869,2.4737002666500644e-05,0.4998921050749327,0.0,0.0,0.0,1.0,0.0,1.402386978473882e-18,-9.568369488545757e-19,0.1177978947368421,0.00025210526315789427,-0.00018052631578947424,0.0,0.0,0.0,55.08946752548218,3.8320000171661377,False,True,False,True,True,False,False,1553.890014819409,2411666.50142913,1957.729331770249,3825855.467515271,1956.8635085113765,3824804.837572243,1524.888057415224,2319856.5835446664,-0.425967773524658,-0.15557886186557227,10.57071682856745,3,0.03,-0.0034631956866293897,-0.0185244750125205,-0.0019362605927829306
7,4913,0.07000000000000225,0.04327486306199925,0.005823196198803572,0.5802176594953284,-0.00115645294503834,-0.0032325134958642926,-0.0007180166613744661,0.9999938489436618,-0.0065873282256930735,-0.005628721396011886,-0.007126629776445494,-0.009146694193475371,0.01078868759433282,0.011221778711208797,0.09767717601040743,2.0019768130919653,0.04382044060855185,55.08946752548218,0.0457207411527633,0.0105412416160106,0.5720989108085632,,,,,,,,0.5985363318719527,0.4618439633122805,0.525226987584657,0.6240577631371816,92000.0,107900.0,108700.0,90900.0,55.08083415031433,0.4232488148602909,-0.3854062974365473,0.007000717381152204,-0.06932344360511947,-0.5062417148195039,-0.21807887031316672,10.525420895883045,55.08946752548218,0.002047368581613869,2.4737002666500644e-05,0.4998921050749327,0.0,0.0,0.0,1.0,0.0,1.402386978473882e-18,-9.568369488545757e-19,0.1177978947368421,0.00025210526315789427,-0.00018052631578947424,0.0,0.0,0.0,55.08946752548218,3.8320000171661377,False,True,False,True,True,False,False,1574.4131535485074,2476825.195591776,1917.1532229786183,3674648.519319392,1925.2045921731485,3705124.750846536,1552.881881614701,2409673.545933743,-0.407493545150698,-0.19272528264042177,10.49050769468245,3,0.03,-0.0006959811086898588,-0.010222299949388822,-0.0019361340707279278
8,4914,0.08000000000000027,0.04338686585396656,0.005834288258382399,0.5799455211291996,-0.0005265759393759624,0.004904511960120507,-0.0004270816224031789,0.9999877429656331,-0.005985966399392782,0.010644421326237944,-0.005825531175067695,-0.008600734669167168,0.010714111174859157,0.017808582268115408,0.06521481387405367,2.883076687902085,0.03692200790734336,55.09939455986023,0.0459116175770759,0.0104057602584362,0.5720369815826416,,,,,,,,0.6696138144882854,0.41959686991011547,0.46619888773286866,0.6810378450790955,92600.0,105600.0,106400.0,91500.0,55.09524655342102,0.1807981642403672,-0.24788057319209808,0.008771669104082728,-0.3117740942250431,-0.19874737218515331,-0.20699760427759936,10.35559892417542,55.09939455986023,0.002047368581613869,2.4737002666500644e-05,0.4998921050749327,0.0,0.0,0.0,1.0,0.0,1.402386978473882e-18,-9.568369488545757e-19,0.1177978947368421,0.00025210526315789427,-0.00018052631578947424,0.0,0.0,0.0,55.08946752548218,3.8320000171661377,False,True,False,True,True,False,False,1634.1997349734138,2672400.34178673,1829.1833748613453,3350022.5089182435,1844.8838390833566,3407071.5281234533,1624.2855367145705,2641917.4850009372,-0.225634880718873,-0.1978130792874408,10.363264121036664,3,0.03,-0.0006959106820438914,0.006378983711001763,-0.0019359381524378448
9,4915,0.08999999999999828,0.04361801935414316,0.0058540066378859985,0.579739020558772,-0.00012644230732420904,0.01686622457916413,-0.00011941334744180847,0.9998577399916653,-0.005331204529729778,0.03457370411404339,-0.0049672236189615806,-0.005657894064292698,0.010429871662215429,0.02494032513315099,0.0730438156753951,3.300834361443059,0.02329669106058952,55.109214544296265,0.0463229678571224,0.0102012455463409,0.572052001953125,,,,,,,,0.6873346778322225,0.44816292250661405,0.46585760947685784,0.677318627616545,98000.0,100300.0,101000.0,98000.0,55.11205863952637,0.06310288338365538,-0.014850012815064415,0.010255228137390705,-0.429469375081755,0.28293108406071454,-0.17058046277389652,10.212541558034967,55.109214544296265,0.008047368581613869,2.4737002666500644e-05,0.4998921050749327,0.0,0.0,0.0,1.0,0.0,1.402386978473882e-18,-9.568369488545757e-19,0.2457978947368421,0.00025210526315789427,-0.00018052631578947424,0.0,0.0,0.0,55.12362694740296,3.8529999256134033,False,True,False,True,True,False,False,1702.194637234444,2899328.771809625,1750.3225793491356,3062446.788341756,1768.0580749097146,3125909.949129192,1698.3636914338915,2886595.6073813597,-0.14152428934583186,-0.12009396702576203,10.166062938557344,3,0.03,-0.0006960126919144366,0.03405105582513703,0.0008308919135534091
10,4916,0.09999999999999629,0.04399651007474839,0.005877396894022998,0.5796570486915507,0.0001082330013865543,0.03173211444542376,0.00013905220833147414,0.9994963941220215,-0.004752426954174108,0.06434148008849448,-0.004425156520481726,0.0005984038262941145,0.009947846916765628,0.0325280539799656,0.10037531605085441,3.30563040198944,0.011591532201074643,55.12362694740296,0.0468601994216442,0.010336248204112,0.5717523694038391,,,,,,,,0.64409611030945,0.5149412114962519,0.5142153849683124,0.6252389799726852,98000.0,100300.0,101000.0,98000.0,55.12101745605469,0.11589003912503319,0.17736707891542874,0.010092228604140059,-0.37668221934037716,0.8198734884246514,-0.1438262495912695,10.231403114117239,55.12362694740296,0.008047368581613869,2.4737002666500644e-05,0.4998921050749327,0.0,0.0,0.0,1.0,0.0,1.402386978473882e-18,-9.568369488545757e-19,0.2457978947368421,0.00025210526315789427,-0.00018052631578947424,0.0,0.0,0.0,55.12362694740296,3.8529999256134033,False,True,False,True,True,False,False,1745.3172238968891,3046697.19784117,1723.8314524754333,2969269.3145961883,1737.2869141758383,3016584.747594222,1737.660410495415,3019462.883233379,0.0942780567007907,-0.10993973210095911,10.329797634969927,3,0.03,-0.0006958378218552082,0.06723952315984744,0.0008306831556962272
11,4917,0.1100000000000014,0.04454202568822071,0.005894271118616804,0.5797212825911214,0.0002732943571614319,0.04829307231166815,0.0003147229219270058,0.998833121910951,-0.004315133445489275,0.09756531184800925,-0.004006447104757549,0.010479898129528646,0.009406830605859163,0.038516818215503505,0.11884232933126157,3.166259221385778,0.009229176939507495,55.129718542099,0.0471915528178215,0.0102514214813709,0.5720946788787842,,,,,,,,0.5855227806058785,0.5702035750446435,0.5714064381635555,0.5750619521891993,103800.0,96800.0,97400.0,102700.0,55.13143229484558,0.2463689707947924,0.22245968879895928,0.008175622418491537,-0.246203287670618,1.2568645316805238,-0.12747870917507287,10.323551415341623,55.129718542099,0.008047368581613869,2.4737002666500644e-05,0.4998921050749327,0.0,0.0,0.0,1.0,0.0,1.402386978473882e-18,-9.568369488545757e-19,0.2457978947368421,0.00025210526315789427,-0.00018052631578947424,0.0,0.0,0.0,55.12362694740296,3.8529999256134033,False,True,False,True,True,False,False,1748.0175938353943,3057735.9315576563,1755.5748183465798,3086926.9201024203,1759.439827827164,3099304.3446558327,1731.105043474884,2998972.561485651,0.23374877679593098,-0.12957522444128539,10.381957279177053,3,0.03,-0.000695522204974772,0.10039098983964627,0.0008303063759093327
12,4918,0.11999999999999941,0.04526694809665742,0.005890550201045685,0.5799174339859671,0.0004471698519446634,0.06549556773306975,0.00042571019918255303,0.9978526691938409,-0.003979745512444742,0.13218421769565747,-0.00354711856000424,0.023862777108414022,0.00896018115593015,0.04107180353825762,0.11320419933772673,3.14691722291119,0.017507756697361057,55.1404390335083,0.0495713204145431,0.0101635055616498,0.5720147490501404,,,,,,,,0.5714744426111196,0.5812850508571167,0.5995178541845269,0.5761819641451607,97100.0,106400.0,106400.0,94900.0,55.14223766326904,0.33051432382314305,0.10470594861662923,0.005138467368616412,-0.16205793464226736,1.5096790557874062,-0.126630352808681,10.365517151014672,55.1404390335083,0.01904736858161387,2.4737002666500644e-05,0.4998921050749327,0.0,0.0,0.0,1.0,0.0,1.402386978473882e-18,-9.568369488545757e-19,0.40579789473684214,0.00025210526315789427,-0.00018052631578947424,0.0,0.0,0.0,55.15981268882752,3.8529999256134033,False,True,False,True,True,False,False,1725.550651905552,2980780.404282012,1811.105184005558,3286857.8275081962,1805.5821478668727,3265501.313917926,1703.520302781972,2905065.1216287683,0.10790744180096246,-0.07390204506315651,10.44038263321031,3,0.03,0.002068314427929748,0.13348730596145328,0.0008297739250175578
13,4919,0.12999999999999742,0.04618008802565047,0.005851773563823888,0.5802079503626203,0.0006704245204893108,0.08271190613818435,0.0005292188936307915,0.9965731338147307,-0.0036247219714139914,0.16699268746962376,-0.002953818345755797,0.04058612335948448,0.008597039396548416,0.04132856369409731,0.08771670982348839,3.3164909597137058,0.029947219191044705,55.14939785003662,0.0495713204145431,0.0101635055616498,0.5720147490501404,,,,,,,,0.6075074015692272,0.5620810946406007,0.5996366630160181,0.6229339646552852,96800.0,106400.0,105300.0,97100.0,55.15110802650452,0.33342773615022403,-0.07458670207681521,0.002416528310594154,-0.15914452231518633,1.7017665982162116,-0.16612247364347077,10.34801325193371,55.14939785003662,0.01904736858161387,2.4737002666500644e-05,0.4998921050749327,0.0,0.0,0.0,1.0,0.0,1.402386978473882e-18,-9.568369488545757e-19,0.40579789473684214,0.00025210526315789427,-0.00018052631578947424,0.0,0.0,0.0,55.15981268882752,3.884999990463257,False,True,False,True,True,False,False,1712.5014450381648,2934392.1181056574,1842.7455022334848,3397505.6007986865,1837.884433857012,3379173.4259074964,1695.105496112767,2874883.937565865,-0.08555772821852603,-0.08426889566565349,10.525814571066,3,0.03,0.002066765596982475,0.1637618795954673,0.0008291525593697856
14,4920,0.14000000000000254,0.04729152483401941,0.005768024915766959,0.5805453843203929,0.0009515669725821026,0.09974881875123663,0.0006850257043106369,0.9950119589320593,-0.0031207499210603585,0.2016519121403142,-0.0021973751317217157,0.060730560631906114,0.008078106452777803,0.042451684353376797,0.06038126938199706,3.54371627393959,0.03666280723791973,55.15981268882752,0.0522986203432083,0.0100290942937135,0.5720089077949524,,,,,,,,0.6461272666367366,0.5562279134842392,0.6023769615410932,0.6633590421141986,100300.0,103100.0,104200.0,99300.0,55.16393828392029,0.3164632583957372,-0.16802517365909445,0.0018773194224613512,-0.1761090000696732,2.038686518314624,-0.21996436011642706,10.345445132385127,55.15981268882752,0.01904736858161387,2.4737002666500644e-05,0.4998921050749327,0.0,0.0,0.0,1.0,0.0,1.402386978473882e-18,-9.568369488545757e-19,0.40579789473684214,0.00025210526315789427,-0.00018052631578947424,0.0,0.0,0.0,55.15981268882752,3.884999990463257,False,True,False,True,True,False,False,1730.261008361489,2994648.5193443447,1830.6475422396022,3350511.032329822,1841.526597414445,3389965.2797392663,1724.0520269422643,2973821.6628989014,-0.039724197994273514,-0.16644828699458117,10.556052582852658,3,0.03,0.0020647179237636417,0.19670264783104005,0.0008283310663603086
15,4921,0.15000000000000055,0.04861713373196789,0.005638399739160145,0.5808821516707467,0.0012787598110860512,0.11666317964791624,0.0009189291889976552,0.9931702889519647,-0.0024091605495458733,0.23631618128673113,-0.0012961740948225606,0.08459443685433841,0.007105272518222775,0.046291679931115985,0.049731783902950785,3.656574264462872,0.032352181574784734,55.17061805725098,0.0522986203432083,0.0100290942937135,0.5720089077949524,,,,,,,,0.6530914320751242,0.5882537731734458,0.6261030374488539,0.6632729455330555,101700.0,103800.0,105300.0,101700.0,55.17105174064636,0.35162070377131643,-0.11790769173636914,0.003992061981862673,-0.14095155469409398,2.5526893934289543,-0.21672926774545231,10.398765351080641,55.17061805725098,0.03504736858161387,2.4737002666500644e-05,0.4998921050749327,0.0,0.0,0.0,1.0,0.0,1.402386978473882e-18,-9.568369488545757e-19,0.5807978947368421,0.00025210526315789427,-0.00018052631578947424,0.0,0.0,0.0,55.19231867790222,3.884999990463257,False,True,False,True,True,False,False,1769.328386586902,3130691.328199466,1797.7543316595143,3230784.053063852,1830.8993612376448,3351409.756031227,1772.0754859350827,3140884.3836317686,0.08165694373381527,-0.21397579749157236,10.635004378829747,3,0.03,0.0020620835592728443,0.23226754447251163,0.0008272742024067734
16,4922,0.15999999999999856,0.05018186345580062,0.005472540516897858,0.5811800442718673,0.0016242597756039052,0.13353856794879737,0.0012092380164748777,0.9910415482681769,-0.0015355470314208305,0.2711822231743459,-0.0003112067373758102,0.1124626907525004,0.00561295585803733,0.05209017202791155,0.05947939505559641,3.597781893806471,0.020374074915712047,55.17948842048645,0.0563556551933288,0.0097873862832784,0.572235107421875,,,,,,,,0.6409165493874458,0.6414067203504582,0.6616129174004971,0.6399051367339688,103100.0,102400.0,105300.0,103400.0,55.18084263801575,0.45230438939513634,-0.004738239675621793,0.006811434160351053,-0.040267869070274034,3.0925332783670583,-0.16474062729923064,10.459769602731594,55.17948842048645,0.03504736858161387,2.4737002666500644e-05,0.4998921050749327,0.0,0.0,0.0,1.0,0.0,1.402386978473882e-18,-9.568369488545757e-19,0.5807978947368421,0.00025210526315789427,-0.00018052631578947424,0.0,0.0,0.0,55.19231867790222,3.884999990463257,False,True,False,True,True,False,False,1806.2831016109908,3261666.013589817,1783.3457064297172,3179882.7176128374,1828.4919095420014,3343796.2334870836,1808.5137373069235,3269353.558008153,0.1365339758504649,-0.08440897311121957,10.973193782796184,3,0.03,0.0020590208270735008,0.2676852245160673,0.0035770190666544583
17,4923,0.16999999999999657,0.052021213436875456,0.005287541749877479,0.5814209181095554,0.0019465404324115862,0.15035120684854292,0.0015025536403776157,0.9886295908539706,-0.0006207775415339795,0.306220658233748,0.0006598767570483347,0.14446311879754875,0.003882048357037221,0.05822663096847085,0.07342534417319294,3.443707899861454,0.00865967168242203,55.19231867790222,0.0563556551933288,0.0097873862832784,0.572235107421875,,,,,,,,0.6375870894801505,0.6820210879645797,0.6930390055201113,0.6316184524460314,105300.0,102000.0,104500.0,105300.0,55.1917028427124,0.5803750206238936,0.05194406180819792,0.00786022388562184,0.08780276215848318,3.5428971377391547,-0.15702302840844917,10.49398134678229,55.19231867790222,0.03504736858161387,2.4737002666500644e-05,0.4998921050749327,0.0,0.0,0.0,1.0,0.0,1.402386978473882e-18,-9.568369488545757e-19,0.5807978947368421,0.00025210526315789427,-0.00018052631578947424,0.0,0.0,0.0,55.19231867790222,3.805000066757202,False,True,False,True,True,False,False,1830.317491480021,3349316.0269670165,1805.0715037982777,3260305.3930381257,1844.1201073986338,3401542.8017479936,1823.1696661270114,3322619.3688638574,0.1883407796408334,-0.060895192915702334,11.097971375089417,3,0.03,0.004801857959531719,0.30293456387271267,0.0035709682828455997
18,4924,0.1800000000000017,0.05418026135888603,0.0051009860199104605,0.5816136672491875,0.0022008904172952887,0.16696053799500962,0.0017440942381333718,0.9859595797846262,0.00020400703899705886,0.3411618130686828,0.0015095545216255676,0.18069979685061366,0.00232314062723857,0.06406023176423636,0.07085572143300872,3.3063288854331647,0.0019675049292748547,55.199432134628296,0.0588639974594116,0.0097081251442432,0.5724758505821228,,,,,,,,0.6507397813069178,0.6963068736381229,0.7159115781920944,0.6523114966349282,105300.0,106800.0,108300.0,104200.0,55.20091223716736,0.6977758146733745,0.01952156655291776,0.006824807857699901,0.20520355620796407,3.9471248732267297,-0.21028109923731347,10.575728514028748,55.199432134628296,0.03504736858161387,2.4737002666500644e-05,0.4998921050749327,0.0,0.0,0.0,1.0,0.0,1.402386978473882e-18,-9.568369488545757e-19,0.5807978947368421,0.00025210526315789427,-0.00018052631578947424,0.0,0.0,0.0,55.19231867790222,3.805000066757202,False,True,False,True,True,False,False,1847.904353734685,3415329.523523071,1847.410807510659,3415163.3774095043,1873.5322430430056,3510303.724538817,1831.4620505229288,3354756.6969292895,0.16529075308315822,-0.16787752382176713,11.210170386753306,3,0.03,0.004792768419257842,0.3379956992286732,0.0035642087201310816
19,4925,0.1899999999999997,0.056709757901142015,0.004923704249583582,0.5817923235830432,0.002358104543125418,0.18317593536816942,0.0018995096877929105,0.9830754843387693,0.0008495520147846928,0.37563713405919585,0.002162402763294353,0.22145789666366214,0.0011611317514009668,0.06986564259960325,0.05026498786158962,3.2339089916900927,-0.0013898136001399288,55.20922303199768,0.0619346126914024,0.0094844456762075,0.5727216601371765,,,,,,,,0.671734253695019,0.6980614504948472,0.7304916521428381,0.6833506175623024,106400.0,109100.0,110300.0,104900.0,55.21129131317139,0.7941666845093259,-0.03428189123587851,0.0055224677329931485,0.3015944260439154,4.402293321542488,-0.23189849118951053,10.76484524496577,55.20922303199768,0.05804736858161387,2.4737002666500644e-05,0.4998921050749327,0.0,0.0,0.0,1.0,0.0,1.402386978473882e-18,-9.568369488545757e-19,0.7727978947368421,0.00025210526315789427,-0.00018052631578947424,0.0,0.0,0.0,55.220083236694336,3.805000066757202,False,True,False,True,True,False,False,1868.433356773559,3492035.158299677,1883.5180872251335,3547529.236736166,1908.9729328153044,3644293.6134122303,1850.9618474391216,3428051.436550007,0.1311159318913786,-0.15326529068490313,11.660012301844949,3,0.03,0.0047843418439269345,0.36750076603477216,0.003557942180493034
20,4926,0.1999999999999977,0.05966026841575188,0.004756535740683951,0.5820064095315964,0.002418893939841494,0.1988276015775057,0.001956366145440088,0.9800295436539397,0.0012780585305744005,0.4093264172204652,0.0026043132286230806,0.267122019027128,0.0003624560775552484,0.0759766110122295,0.03242659885668644,3.1945643624475166,-0.005740239301222598,55.220083236694336,0.0651081353425979,0.0096112042665481,0.5731348395347595,,,,,,,,0.695592859182798,0.7034970107122605,0.7311345763261375,0.7023667954556974,110300.0,107900.0,109100.0,109100.0,55.2209255695343,0.8652410493658236,-0.036596466747697495,0.00546061383004413,0.37266879090041294,4.908272495360666,-0.18515287434044375,10.976068558185457,55.220083236694336,0.05804736858161387,2.4737002666500644e-05,0.4998921050749327,0.0,0.0,0.0,1.0,0.0,1.402386978473882e-18,-9.568369488545757e-19,0.7727978947368421,0.00025210526315789427,-0.00018052631578947424,0.0,0.0,0.0,55.220083236694336,3.805000066757202,False,True,False,True,True,False,False,1894.5924785949214,3589684.6712502586,1902.863674458113,3619956.096544399,1944.4354476480248,3781813.1807539053,1881.159253964059,3540272.0858516907,0.0820176513255717,-0.107178649330591,12.054926114170035,3,0.03,0.0047743966926105715,0.3995042414392266,0.0035505463307577583
21,4927,0.21000000000000282,0.06307717012617009,0.0045927526100445855,0.5823092469593503,0.0024130780243621554,0.21380109970855657,0.0019124550183693585,0.9768723608198069,0.001480655571338524,0.4420227462939512,0.0028788524698473666,0.3178443392559501,-0.0002107807576374295,0.08271204896922257,0.03465392010707731,3.130677763880186,-0.012486865564038665,55.22929263114929,0.0691692680120468,0.0092181488871574,0.5738879442214966,,,,,,,,0.7187524850105185,0.7120577895980496,0.7178199849169802,0.7064822541183587,109900.0,108700.0,113600.0,110700.0,55.23212909698486,0.8884954574040806,0.011092524536701969,0.006309582066410836,0.3959231989386701,5.388417740842637,-0.15268828758613273,11.101515784006757,55.22929263114929,0.05804736858161387,2.4737002666500644e-05,0.4998921050749327,0.0,0.0,0.0,1.0,0.0,1.402386978473882e-18,-9.568369488545757e-19,0.7727978947368421,0.00025210526315789427,-0.00018052631578947424,0.0,0.0,0.0,55.220083236694336,3.7790000438690186,False,True,False,True,True,False,False,1925.292279177724,3706538.11389117,1914.3627695993705,3664911.759896174,1972.9510894991165,3893773.3413967583,1909.753371270607,3647195.029775568,0.16715095294553883,-0.06637658546779152,12.321998093812997,3,0.03,0.004763683998669265,0.43130168445050615,0.003542579687302114
22,4928,0.22000000000000083,0.06699913120264683,0.0044238695065373064,0.5827483879514246,0.0023839108594184153,0.2280380988442117,0.001767241535994941,0.9736476874629165,0.0014565757444018341,0.47361686302746064,0.0030562517267277286,0.3733844658713314,-0.0007220690418962871,0.09069264280818144,0.04750387998435184,3.0155070223442633,-0.019260062486941447,55.23967170715332,0.073505513370037,0.0092104040086269,0.5746878981590271,,,,,,,,0.7271687109404957,0.7166384477021741,0.7099401514835306,0.7054234255158168,110700.0,111500.0,115800.0,108300.0,55.24085640907288,0.8391629778875694,0.05597484020380454,0.00679921542440107,0.346590719422159,5.830010691438114,-0.19334064736075052,11.155910379925237,55.23967170715332,0.08804736858161387,2.4737002666500644e-05,0.4998921050749327,0.0,0.0,0.0,1.0,0.0,1.402386978473882e-18,-9.568369488545757e-19,0.9657978947368421,0.00025210526315789427,-0.00018052631578947424,0.0,0.0,0.0,55.2605094909668,3.7790000438690186,False,True,False,True,True,False,False,1957.3858616468397,3831606.050507011,1929.1825445941286,3722585.8807801525,1989.6248978054925,3959021.196942538,1930.2509094455102,3725690.6927654184,0.07820552476991605,-0.10884896004743864,12.579758615962874,3,0.03,0.0047532061520434744,0.46025649902369614,0.0035347876913104487
23,4929,0.22999999999999884,0.07146014870597692,0.004244599753090048,0.5833591362855954,0.00236683913418017,0.2415254459153565,0.001526160971010407,0.9703903997261059,0.0012172332902511897,0.504049176568344,0.003196245079843237,0.43332805840572003,-0.0014306453864950711,0.10043884705596753,0.0465210374127282,2.867803491633488,-0.02361069285294664,55.24930596351624,0.0782817378640174,0.0090595232322812,0.5753177404403687,,,,,,,,0.7117874016494941,0.7148301888166292,0.7234344299832274,0.7072582927556396,114100.0,113200.0,114100.0,111500.0,55.251343727111816,0.7194604954267994,0.06502145548161116,0.006365281984323215,0.22688823696138888,6.284961498306876,-0.2544595011405212,11.197467839222309,55.24930596351624,0.08804736858161387,2.4737002666500644e-05,0.4998921050749327,0.0,0.0,0.0,1.0,0.0,1.402386978473882e-18,-9.568369488545757e-19,0.9657978947368421,0.00025210526315789427,-0.00018052631578947424,0.0,0.0,0.0,55.2605094909668,3.7790000438690186,False,True,False,True,True,False,False,1981.2946673290799,3926101.811664508,1950.825673847682,3806386.5131981475,2001.3306465536757,4005235.5463118195,1944.0785929882989,3780055.2918040585,0.03590228808030815,-0.21274623668795506,12.83006184476855,3,0.03,0.004743148260478073,0.4864099902565376,0.003527308000725046
24,4930,0.23999999999999685,0.0764929459788751,0.004054240603996885,0.5841615955095426,0.0023732000109514097,0.2542890239619052,0.0012129275589120355,0.9671245984985318,0.0008081480337528633,0.533274727221865,0.0033228674887064488,0.49739668568004314,-0.0026429127597650537,0.11163628719149316,0.024702362349231143,2.7290250330463843,-0.02575492778334639,55.2605094909668,0.0840067714452743,0.008785487152636,0.5763400793075562,,,,,,,,0.6937983647598764,0.7018285063764036,0.7380587689830691,0.7181365640465083,114900.0,111100.0,114100.0,113200.0,55.251343727111816,0.5679511859877836,0.044463257091710374,0.0054986931533222835,0.07537892752237321,6.727096235770901,-0.2701492641239196,11.215862293575146,55.2605094909668,0.08804736858161387,2.4737002666500644e-05,0.4998921050749327,0.0,0.0,0.0,1.0,0.0,1.402386978473882e-18,-9.568369488545757e-19,0.9657978947368421,0.00025210526315789427,-0.00018052631578947424,0.0,0.0,0.0,55.2605094909668,3.7790000438690186,False,True,False,True,True,False,False,1985.707877125306,3943762.1903305934,1978.2870876984057,3914158.429760797,2021.7837719029098,4088125.0199139602,1951.9167376937849,3810818.684840831,0.10591689590560094,-0.1758860418866255,13.110017967475526,3,0.03,0.004731513675984326,0.5149838066501099,0.0035186557805716393
25,4931,0.25000000000000194,0.08213164016869079,0.0038551138092308484,0.5851615087093446,0.0023856080954870805,0.2663935069716335,0.0008756183763201498,0.9638610074122865,0.0003205792439167009,0.5612599530975502,0.003418287354993806,0.5654831288683947,-0.004422078258810258,0.12326399290387752,0.0006446337690641304,2.624074565920633,-0.027739813593566996,55.26923680305481,0.0902249962091445,0.0087515702471137,0.5775492191314697,,,,,,,,0.7056582880847463,0.6724676788066108,0.7194541401567044,0.7404696560862793,112800.0,115400.0,118100.0,111900.0,55.26576828956604,0.45803030555620095,0.012177630998750681,0.0048240288291943835,-0.03454195290920936,7.0667260474942974,-0.24627305532137544,11.163467415478898,55.26923680305481,0.12204736858161387,2.4737002666500644e-05,0.4998921050749327,0.0,0.0,0.0,1.0,0.0,1.402386978473882e-18,-9.568369488545757e-19,1.148797894736842,0.00025210526315789427,-0.00018052631578947424,0.0,0.0,0.0,55.29414868354797,3.7739999294281006,False,True,False,True,True,False,False,1973.5309284975388,3895458.758209851,2006.1131412847171,4024969.385023176,2049.662266823282,4201951.508144044,1954.490484794066,3820356.39307126,0.04491758824139769,-0.14633906283966386,13.209889118575289,3,0.03,0.004720435881528682,0.540775649800744,0.0008106651301731497
26,4932,0.25999999999999995,0.08841306473641557,0.003650595872566918,0.5863529746831748,0.0023667903859534954,0.2779355419753961,0.0005766239852319757,0.9605966376762368,-0.0001271093515562165,0.5879969701927944,0.0034355239101649003,0.6374014131183803,-0.006369193271431586,0.13441456685647712,-0.008398261784145385,2.532844812090839,-0.031349980895329393,55.27972412109375,0.1050333231687545,0.0083861351013183,0.5800654888153076,,,,,,,,0.7419569651307105,0.6397313921407042,0.6745852147598069,0.7617099396921738,111900.0,116300.0,118800.0,111500.0,55.28185939788818,0.47253897474607454,-0.014195546597517374,0.0044881743545182855,-0.020033283719335784,7.3218022544215735,-0.21391370850798005,11.012301041908305,55.27972412109375,0.12204736858161387,2.4737002666500644e-05,0.4998921050749327,0.0,0.0,0.0,1.0,0.0,1.402386978473882e-18,-9.568369488545757e-19,1.148797894736842,0.00025210526315789427,-0.00018052631578947424,0.0,0.0,0.0,55.29414868354797,3.7739999294281006,False,True,False,True,True,False,False,1963.9478038744805,3857258.307614101,2021.9698922975888,4088762.3245321945,2063.432275294116,4258751.673066691,1957.3879794530685,3831333.21520721,-0.08962691065901662,-0.14068022637262434,13.200554471191484,3,0.03,0.004710061283755377,0.5638314606991743,0.0008088834462639794
27,4933,0.26999999999999796,0.0953769049533513,0.0034442221809644125,0.587720118882217,0.002278611733616842,0.2890162799273683,0.00037068465181867296,0.9573213987258414,-0.00042936703725247205,0.6135014379830788,0.00332670806977158,0.7126318713678431,-0.007841243297224614,0.1445478678935384,-0.008223820608592471,2.4068018525722605,-0.03674325739848973,55.29414868354797,0.1050333231687545,0.0083861351013183,0.5800654888153076,,,,,,,,0.757573705815155,0.6307259384234287,0.6505810768012454,0.7590435757341439,111900.0,116300.0,118800.0,111500.0,55.29314088821411,0.6281676660985918,-0.01866299252479859,0.004497347477717064,0.1355954076331813,7.597375723542257,-0.18851882756378274,10.761696423874772,55.29414868354797,0.12204736858161387,2.4737002666500644e-05,0.4998921050749327,0.0,0.0,0.0,1.0,0.0,1.402386978473882e-18,-9.568369488545757e-19,1.148797894736842,0.00025210526315789427,-0.00018052631578947424,0.0,0.0,0.0,55.29414868354797,3.7739999294281006,False,True,False,True,True,False,False,1969.9429891891325,3880864.0801919983,2015.7159739708964,4064043.4144874006,2048.2233403237688,4197530.694769559,1964.0568978474075,3857718.8033255786,0.016918832321417554,-0.13375923225869268,13.189067575723405,3,0.03,0.00470052892181316,0.5841973531958681,0.000807246403916898
28,4934,0.2800000000000031,0.10306455161592895,0.0032392187147832876,0.5892375032752406,0.0021030573312268105,0.29969587574186535,0.0002848441250998146,0.9540324303067493,-0.0005280261158179789,0.6377762181820623,0.0030765949702345613,0.7903349847277804,-0.008502688476935402,0.15296563809558264,-0.013638910258705911,2.2254476905512632,-0.04211638812096223,55.299421310424805,0.1135169863700866,0.0081996712833642,0.5816692113876343,,,,,,,,0.7261618361133202,0.6527490641544011,0.6705632285565509,0.7261338818315186,114900.0,112800.0,113200.0,114500.0,55.300822496414185,0.8174522414781823,-0.005376050463002164,0.004881666874469165,0.3248799830127718,7.887728516605237,-0.18627667266073333,10.449471080215474,55.299421310424805,0.12204736858161387,2.4737002666500644e-05,0.4998921050749327,0.0,0.0,0.0,1.0,0.0,1.402386978473882e-18,-9.568369488545757e-19,1.148797894736842,0.00025210526315789427,-0.00018052631578947424,0.0,0.0,0.0,55.29414868354797,3.7739999294281006,False,True,False,True,True,False,False,1981.2347053167173,3925811.016067223,1992.2078810108137,3969929.2706250465,2017.815354227752,4073573.3087888537,1967.7110894308707,3872600.9014314283,0.12598193362895316,-0.07253119081078711,13.097007386989544,3,0.03,0.004701991299581753,0.6085818936845213,0.0008074975456957277
29,4935,0.2900000000000011,0.11151620786542879,0.003037449399282332,0.5908718117869134,0.0018536285681469544,0.30995377542216096,0.00031037244083671306,0.9507497698299106,-0.00042703939917514085,0.6607605030965001,0.002719729687553072,0.8696595537632377,-0.008673124911314308,0.1585876923285436,-0.023421126946582084,2.02586684100434,-0.04542941734720423,55.31023979187012,0.1228926926851272,0.0080338139086961,0.5832362174987793,,,,,,,,0.6765541002764396,0.677965636142509,0.700236092865363,0.6855247638027483,114100.0,113200.0,114900.0,112400.0,55.31100749969482,0.8787866062688793,0.0007123595867153027,0.0052043885241052565,0.38621434780346875,8.071816722781117,-0.19680463619708322,10.142485765752385,55.31023979187012,0.16404736858161387,2.4737002666500644e-05,0.4998921050749327,0.0,0.0,0.0,1.0,0.0,1.402386978473882e-18,-9.568369488545757e-19,1.325797894736842,0.00025210526315789427,-0.00018052631578947424,0.0,0.0,0.0,55.321521282196045,3.8420000076293945,False,True,False,True,True,False,False,1979.4214885807999,3919174.5819545467,1967.0832456206804,3869262.1466792114,1997.3115821072074,3988910.1093600085,1960.179388684805,3843381.1535478896,0.1299468575052547,-0.10260713218837127,12.960607935847323,3,0.03,0.004708274203645005,0.630937465618392,0.0008085765416546034
30,4936,0.2999999999999991,0.12076589973239196,0.0028383283288891032,0.592586121861198,0.0015681653817174405,0.31967997978840773,0.00040630963220308853,0.9475241877083147,-0.00019510695610394798,0.6822998202542198,0.002319343390020676,0.9500512096335054,-0.009058833245366658,0.16058021388502974,-0.023441529093025014,1.8582865164193305,-0.047561310473157314,55.321521282196045,0.1328754872083664,0.0078978259116411,0.5848788619041443,,,,,,,,0.653902691822446,0.6728007978256139,0.6928113499203935,0.6646705886299685,111500.0,111500.0,114100.0,110300.0,55.32135677337647,0.7571324461939244,-0.009089257276253804,0.004732128989865744,0.26456018772851386,8.103738432520142,-0.1662735271103709,9.872002220356205,55.321521282196045,0.16404736858161387,2.4737002666500644e-05,0.4998921050749327,0.0,0.0,0.0,1.0,0.0,1.402386978473882e-18,-9.568369488545757e-19,1.325797894736842,0.00025210526315789427,-0.00018052631578947424,0.0,0.0,0.0,55.321521282196045,3.8420000076293945,False,True,False,True,True,False,False,1963.9947225405326,3858311.005671583,1949.0820914444512,3797883.178016272,1990.3691630515664,3960124.152270576,1945.3266057781511,3784915.892459912,0.029420853163047767,-0.18128934926100052,12.767780446943146,3,0.03,0.0020179163174972505,0.6505734060361367,0.0008095550272801864
31,4937,0.3100000000000042,0.13083489508339255,0.00263919840245307,0.5943449015396166,0.001285265137018683,0.3287016154872648,0.0005092820247166081,0.9444328121689808,3.449152402729531e-05,0.7021536445045118,0.0019115194688790159,1.031230708379251,-0.010075151287027767,0.15904416075472055,-0.011045853898711096,1.717545403027255,-0.05254860963317457,55.32920289039612,0.1437559425830841,0.0076846610754728,0.5865980982780457,,,,,,,,0.660848414378485,0.6363985765766572,0.6485125033520718,0.6646672826830649,111500.0,110700.0,114100.0,111100.0,55.33065414428711,0.5675399409054627,-0.009665947235968132,0.0036135388922593336,0.0749676824400522,8.063540286023787,-0.08854720687784993,9.594913415067966,55.32920289039612,0.16404736858161387,2.4737002666500644e-05,0.4998921050749327,0.0,0.0,0.0,1.0,0.0,1.402386978473882e-18,-9.568369488545757e-19,1.325797894736842,0.00025210526315789427,-0.00018052631578947424,0.0,0.0,0.0,55.321521282196045,3.8420000076293945,False,True,False,True,True,False,False,1950.5683842959106,3804484.6511754026,1932.9164465317635,3735818.4632355496,1977.295879329872,3909740.627979778,1933.8752632734108,3739511.221412434,-0.04789415056619983,-0.02044280731364205,12.532213904098137,3,0.03,0.002020449812993782,0.6702862594558406,0.0008105714242427484
32,4938,0.3200000000000022,0.1417256525205656,0.0024374048947727687,0.5961170227755475,0.0010200520191482264,0.33682809776602257,0.0005471492000579335,0.9415654478988457,7.684888935965704e-05,0.7200322843465998,0.0014551480799263367,1.1128743224006348,-0.011465647937867352,0.15480674574451647,-0.0021713725536505243,1.539344040832026,-0.06289660373110005,55.33938789367676,0.1553173214197158,0.007507056929171,0.5882391333580017,,,,,,,,0.6592849326788136,0.6008898371947589,0.6106164800897553,0.6613689127808671,111100.0,110300.0,111500.0,110300.0,55.341081619262695,0.46487595215234845,0.021427157343630317,0.0030799042482209642,-0.027696306313062066,8.022268367494705,-0.04624105231092614,9.247490747935583,55.33938789367676,0.21104736858161385,2.4737002666500644e-05,0.4998921050749327,0.0,0.0,0.0,1.0,0.0,1.402386978473882e-18,-9.568369488545757e-19,1.484797894736842,0.00025210526315789427,-0.00018052631578947424,0.0,0.0,0.0,55.35903453826904,3.8420000076293945,False,True,False,True,True,False,False,1945.0233920248704,3781893.3088321523,1910.897595906728,3652540.549668177,1944.103148200292,3781720.759333932,1927.1196739301915,3713137.138534283,-0.06799199563010827,0.020997675063277987,12.248478581532982,3,0.03,0.002022692415919673,0.6872448771172568,0.000811471119862981
33,4939,0.33000000000000024,0.15341982292677606,0.002232368983747769,0.5978759200365887,0.0007574492853985176,0.343893248828846,0.00045792358203886936,0.9390083332891751,-0.0002579868868334433,0.735645005786357,0.0008364334859282523,1.1943503824029937,-0.012662202337025728,0.1484355740128329,-0.011234791068624513,1.2711457430898827,-0.0751635070377775,55.3497371673584,0.1676784306764602,0.0073242336511611,0.5898202657699585,,,,,,,,0.6259930749143511,0.5921605408165761,0.6076199252603782,0.6373114947745303,111900.0,107500.0,107900.0,110300.0,55.350908041000366,0.4766160528389757,0.06641906227232991,0.003761992690579408,-0.015956205626434843,7.960955089978469,-0.08605344651708552,8.830273491457696,55.3497371673584,0.21104736858161385,2.4737002666500644e-05,0.4998921050749327,0.0,0.0,0.0,1.0,0.0,1.402386978473882e-18,-9.568369488545757e-19,1.484797894736842,0.00025210526315789427,-0.00018052631578947424,0.0,0.0,0.0,55.35903453826904,3.878999948501587,False,True,False,True,True,False,False,1933.4530426546594,3737938.0311154695,1885.567826419532,3556509.3899542377,1900.52054081687,3613487.737198763,1915.48921848351,3669227.3926569344,-0.06332830246649479,-0.07184160518765827,11.883926790668596,3,0.03,0.002024612347040496,0.7014222648509936,0.0008122413648317227
34,4940,0.33999999999999825,0.16588301145388504,0.002025965913633021,0.5995979805033207,0.000466962611525826,0.34978005541740254,0.000213467664538966,0.9368317080509575,-0.0010835418503701282,0.7487422107891608,-6.332342902115704e-05,1.2747837626488367,-0.01346287684859362,0.1395222893120951,-0.03318945790279862,0.9334920313566828,-0.08196917247391625,55.35903453826904,0.1806758940219879,0.0071315262466669,0.5914327502250671,,,,,,,,0.5840239424990046,0.5993166630459137,0.6195322693976782,0.604130072333136,109100.0,106400.0,106800.0,108700.0,55.36021685600281,0.5106709552249382,0.08384411769962688,0.004497886092505832,0.018098696759527702,7.830594714370219,-0.1439430945595955,8.418432344927911,55.35903453826904,0.21104736858161385,2.4737002666500644e-05,0.4998921050749327,0.0,0.0,0.0,1.0,0.0,1.402386978473882e-18,-9.568369488545757e-19,1.484797894736842,0.00025210526315789427,-0.00018052631578947424,0.0,0.0,0.0,55.35903453826904,3.878999948501587,False,True,False,True,True,False,False,1903.130812662419,3623695.63090335,1865.6739790679387,3480624.0069917995,1865.4688275293354,3479144.0615947936,1893.8370303916738,3587542.9322968004,0.015912397670665435,-0.12620299638149313,11.512174518977929,3,0.03,0.002026579262653074,0.7156418373177832,0.0008130304592102118
35,4941,0.34999999999999626,0.17907519398420726,0.0018214355103206986,0.6012605560254322,0.00012524706840480625,0.3544223549981799,-0.00016025842963275454,0.9350854254601296,-0.0023572033296586064,0.7591356188484859,-0.0012828520442862462,1.3534036914737122,-0.014190251039552102,0.12706542068719348,-0.05064589457930536,0.5977164421068306,-0.07890205440683144,55.36946201324463,0.1945300996303558,0.0068981805816292,0.5929147005081177,,,,,,,,0.5702186104955955,0.5924358665962698,0.6097245498730792,0.5869068275021863,106400.0,106400.0,106400.0,106400.0,55.37371301651001,0.4937115157009356,0.058843893083975946,0.0037575403796959485,0.0011392572355251097,7.631193497524451,-0.15215037499000023,8.080925319485516,55.36946201324463,0.26204736858161387,2.4737002666500644e-05,0.4998921050749327,0.0,0.0,0.0,1.0,0.0,1.402386978473882e-18,-9.568369488545757e-19,1.617797894736842,0.00025210526315789427,-0.00018052631578947424,0.0,0.0,0.0,55.38859724998474,3.878999948501587,False,True,False,True,True,False,False,1863.5847289657986,3474734.610943514,1851.8039976758605,3428075.210469637,1844.080767827918,3399266.9260999933,1869.8199479723594,3496783.8805422904,-0.04522155513361348,-0.11598861660980135,11.08177544475019,3,0.03,-0.000681453257601115,0.7241924802973995,0.0008135110290129615
36,4942,0.3600000000000014,0.19296139931513637,0.0016223258582553622,0.6028397096682732,-0.00027107009103220054,0.35778320584961093,-0.0005806989564442995,0.9338044586109572,-0.003858755178951722,0.7666822104343054,-0.0027416748436455305,1.4298770592936636,-0.015150020873652633,0.11056434299274454,-0.05423173848363748,0.3063642372412616,-0.06872492115642034,55.3792884349823,0.2088029831647873,0.0066831987351179,0.5940285325050354,,,,,,,,0.5867839484105881,0.5629731951531523,0.5738110351740859,0.5917386685053188,104500.0,105300.0,104500.0,106000.0,55.38186454772949,0.4381859280097179,0.024345916716603237,0.0019030022259985111,-0.054386330455692605,7.411657645835495,-0.125784258815382,7.815828736338638,55.3792884349823,0.26204736858161387,2.4737002666500644e-05,0.4998921050749327,0.0,0.0,0.0,1.0,0.0,1.402386978473882e-18,-9.568369488545757e-19,1.617797894736842,0.00025210526315789427,-0.00018052631578947424,0.0,0.0,0.0,55.38859724998474,3.878999948501587,False,True,False,True,True,False,False,1837.279306699052,3375565.5811555893,1832.7228350918845,3358342.7746384474,1825.8027032576829,3333394.546518016,1853.496949054258,3435210.291615702,-0.12458094385224516,-0.11504269867821626,10.806342486799581,3,0.03,-0.0006818612361821006,0.7327586087867651,-0.0018968543174483204
37,4943,0.3699999999999994,0.20751648621604504,0.0014320194162039971,0.6043067753370663,-0.0007083713632154017,0.3598152328757644,-0.0009336917252006488,0.9330228424965454,-0.005259945605297127,0.7712287373709774,-0.004274034114750858,1.5042950110270854,-0.01609908490919222,0.09050085909130576,-0.051164946712543694,0.028821480875296207,-0.05849953478252438,55.38859724998474,0.224366083741188,0.0064892503432929,0.5951327085494995,,,,,,,,0.6008078724199531,0.5313602774609757,0.5403611899808094,0.599506688619702,105600.0,103100.0,103100.0,106400.0,55.393702268600464,0.4058859993062548,0.025689441510757006,0.00095588037000458,-0.08668625915915577,7.2147810393756595,-0.10692181530713007,7.584705264711523,55.38859724998474,0.26204736858161387,2.4737002666500644e-05,0.4998921050749327,0.0,0.0,0.0,1.0,0.0,1.402386978473882e-18,-9.568369488545757e-19,1.617797894736842,0.00025210526315789427,-0.00018052631578947424,0.0,0.0,0.0,55.38859724998474,3.900000095367432,False,True,False,True,True,False,False,1832.477891606166,3357074.739932026,1798.4251156788341,3235361.574200662,1800.0175976300907,3240886.5971921845,1844.1000795832845,3400308.0282880296,-0.10497426869390392,-0.10170258620727717,10.457267782885303,3,0.03,-0.0006819992237212325,0.7356183185664302,-0.0018972381818557207
38,4944,0.3799999999999974,0.22272175045923848,0.0012528309900347178,0.6056241571450491,-0.00116814325514056,0.3604176404545219,-0.0011199151576450248,0.9327896363492522,-0.0062625547270380106,0.7725384445870054,-0.005712331508866587,1.576771529837926,-0.016400802154540373,0.06762429993700086,-0.05480870901729825,-0.3017957482023276,-0.0534288388784582,55.40209341049194,0.2400012463331222,0.0063399393111467,0.5960417985916138,,,,,,,,0.5866250752651496,0.5176293155499434,0.5317028467327838,0.5913890959469146,105300.0,100300.0,100700.0,104900.0,55.40532159805298,0.4588037569656319,0.07053083969872644,0.001958451453488779,-0.03376850149977857,7.039703188319235,-0.10250114218131912,7.370108075011961,55.40209341049194,0.26204736858161387,2.4737002666500644e-05,0.4998921050749327,0.0,0.0,0.0,1.0,0.0,1.402386978473882e-18,-9.568369488545757e-19,1.617797894736842,0.00025210526315789427,-0.00018052631578947424,0.0,0.0,0.0,55.38859724998474,3.900000095367432,False,True,False,True,True,False,False,1833.5978638650197,3361268.186188384,1752.74362449931,3073416.9525506864,1766.5555766312652,3121364.666508457,1831.9394269352847,3355965.4408269194,-0.08751498325319051,-0.10937084080088193,10.171058655960486,3,0.03,-0.0033933939419081094,0.7356169613707021,-0.001897234681503037
39,4945,0.3900000000000025,0.238556782991102,0.001084033998428961,0.6067437372219054,-0.0016377073874088586,0.35941381108189263,-0.001100257259636591,0.9331761997351119,-0.006733722255440926,0.7702470823685323,-0.006967677927366251,1.6470708308562463,-0.015712608481174353,0.042149862215234826,-0.06872306146833944,-0.719170195586904,-0.05411706985999572,55.41024494171143,0.2561627924442291,0.0061964937485754,0.5967586636543274,,,,,,,,0.5535094442711737,0.5196069843286869,0.5408615465183534,0.5704102061247773,104200.0,97400.0,100000.0,103400.0,55.410250186920166,0.6011136678973392,0.1232150379691864,0.003571440730992124,0.10854140943192887,6.850303265349299,-0.09711921274410117,7.173229048207954,55.41024494171143,0.31804736858161387,2.4737002666500644e-05,0.4998921050749327,0.0,0.0,0.0,1.0,0.0,1.402386978473882e-18,-9.568369488545757e-19,1.728797894736842,0.00025210526315789427,-0.00018052631578947424,0.0,0.0,0.0,55.4220826625824,3.900000095367432,False,True,False,True,True,False,False,1819.0049162649284,3308886.142415321,1709.909350270022,2923706.1723675933,1732.8675780976996,3002750.015066399,1810.429084247853,3277948.1214358644,-0.11224802721209315,-0.085,9.944505433478682,3,0.03,-0.00339338567813193,0.7356151699565525,-0.004608619434773619
40,4946,0.4000000000000005,0.25499318223624534,0.0009203026375137621,0.6076118954438751,-0.0021127183501657145,0.35657080906572486,-0.0009128054355378896,0.9342654661977098,-0.006757391913982671,0.7638935546123388,-0.008058612300949461,1.7147373534852282,-0.01445208832750517,0.01413075527567116,-0.0815487955917543,-1.1971332921630529,-0.0585310712746859,55.4220826625824,0.2729337215423584,0.0060535441152751,0.5973137021064758,,,,,,,,0.5288207056744666,0.5226028929440386,0.5465402328454811,0.5534025886736004,101700.0,97100.0,97400.0,102000.0,55.42378830909729,0.7264562949771375,0.14412349929276164,0.003908576516694059,0.23388403651172712,6.610355148716238,-0.07942220186672912,7.00168595004353,55.4220826625824,0.31804736858161387,2.4737002666500644e-05,0.4998921050749327,0.0,0.0,0.0,1.0,0.0,1.402386978473882e-18,-9.568369488545757e-19,1.728797894736842,0.00025210526315789427,-0.00018052631578947424,0.0,0.0,0.0,55.4220826625824,3.900000095367432,False,True,False,True,True,False,False,1783.1160373034218,3180748.9102986986,1680.991944346363,2824805.4359845994,1706.754178637475,2912622.3595989007,1782.0700637432233,3176040.0569810243,-0.07924303738453098,-0.10474708937078767,9.622903938229584,3,0.03,-0.003392023783576257,0.7298992948589234,-0.0018964686307730474
41,4947,0.40999999999999853,0.2719953545715965,0.000753107047586677,0.6081810773479182,-0.002590840958355404,0.3516620649677556,-0.0006476944174648256,0.9361232077550925,-0.006563086131236591,0.7530299517694007,-0.009069941635454742,1.7795929743418186,-0.013510637704881751,-0.015527179599825058,-0.07698092193481446,-1.6819992660058605,-0.0644838939298328,55.43370199203491,0.2906263172626495,0.0058856401592493,0.597734272480011,,,,,,,,0.5242133079533766,0.5209605511589673,0.5396424480713804,0.5472292412262443,100300.0,95200.0,97100.0,101000.0,55.43066883087158,0.6824747254117121,0.12435904328702563,0.0028849185894123195,0.18990246694630172,6.3174627932606455,-0.05237102542897327,6.880355683318703,55.43370199203491,0.31804736858161387,2.4737002666500644e-05,0.4998921050749327,0.0,0.0,0.0,1.0,0.0,1.402386978473882e-18,-9.568369488545757e-19,1.728797894736842,0.00025210526315789427,-0.00018052631578947424,0.0,0.0,0.0,55.4220826625824,3.9159998893737793,False,True,False,True,True,False,False,1740.1985053715034,3029113.811507777,1666.1606194472615,2775754.440273091,1691.7897326037933,2862034.789212833,1754.7531174095877,3079184.8714111447,-0.09923704765549424,-0.08957987002162648,9.323694020685124,3,0.03,-0.0060974772270184835,0.7184868952282463,0.000813186042678809
42,4948,0.41999999999999654,0.2895291872797801,0.0005756878252586828,0.6084221133222734,-0.0030618723954255783,0.3445489241063484,-0.00039425850923562115,0.9387632866675282,-0.0063752806061194225,0.7373645594089477,-0.010070071536779161,1.8419096754924866,-0.013450547617515698,-0.0450116967232802,-0.04931503554582149,-2.137807944391676,-0.07010012301736399,55.4386305809021,0.3086993992328644,0.0057219648733735,0.597856879234314,,,,,,,,0.5266662369085766,0.523170777305652,0.5298921382521927,0.5406891383183448,97700.0,94600.0,96200.0,99300.0,55.43066883087158,0.4460461559472948,0.08492115223953223,0.0017403572042710672,-0.046526102518115536,6.007823855835127,-0.03469605364895777,6.836911185534344,55.4386305809021,0.37804736858161386,2.4737002666500644e-05,0.4998921050749327,0.0,0.0,0.0,1.0,0.0,1.402386978473882e-18,-9.568369488545757e-19,1.810797894736842,0.00025210526315789427,-0.00018052631578947424,0.0,0.0,0.0,55.45904922485352,3.9159998893737793,False,True,False,True,True,False,False,1709.9679070376574,2923507.389521528,1658.065825676595,2749662.8902768223,1685.5135220480527,2841189.448792015,1735.6305558844385,3012281.5089479727,-0.17096896476437795,-0.07207144882085836,9.123029507540371,3,0.03,-0.0060915318004216065,0.7042587982625976,0.0008123931347684804
43,4949,0.43000000000000166,0.30757485566261916,0.0003888885456732186,0.6083302425171248,-0.0035018918504480696,0.335244354838677,-0.00019765444199444234,0.9421246840174545,-0.006290663247890161,0.7168715478995161,-0.011046842175581738,1.9019410350331247,-0.013982723181992607,-0.0728516087869518,-0.010266029011050072,-2.5586446329284143,-0.07388637002112775,55.45216870307922,0.3272505104541778,0.0054659186862409,0.5979771614074707,,,,,,,,0.5200683934485512,0.536650797401782,0.5293931416588904,0.5222547573366986,97100.0,95200.0,96800.0,98700.0,55.446062088012695,0.18933793845583985,0.05154004293177611,0.0009295284104018759,-0.30323432000957057,5.720250614208354,-0.04180519231202663,6.872154761111525,55.45216870307922,0.37804736858161386,2.4737002666500644e-05,0.4998921050749327,0.0,0.0,0.0,1.0,0.0,1.402386978473882e-18,-9.568369488545757e-19,1.810797894736842,0.00025210526315789427,-0.00018052631578947424,0.0,0.0,0.0,55.45904922485352,3.9159998893737793,False,True,False,True,True,False,False,1699.561176802935,2887601.946458583,1650.0261959431477,2723126.1915663355,1680.9519408388871,2825892.276888807,1726.3749246525485,2980180.2861664966,-0.21646682180510268,-0.07644089680222566,8.920710473973118,3,0.03,-0.006083427444984601,0.6844084437987699,-0.0018905956937701497
44,4950,0.43999999999999967,0.32613744363799585,0.00020359879390886498,0.607922737795755,-0.0038768379093740385,0.3239291478675686,-5.4089738829506937e-05,0.946073397979203,-0.00626726480198354,0.6918221103613659,-0.011908632823175313,1.9594467885985412,-0.014258724097253123,-0.09899743488823823,0.019386194178473856,-2.947822845158618,-0.07556033599299612,55.45904922485352,0.346118301153183,0.0054122349247336,0.5975914597511292,,,,,,,,0.5055676279104817,0.5547383879816054,0.5376990399952067,0.49904996797733536,97100.0,93800.0,95500.0,98400.0,55.46109509468079,0.10434303928115461,0.032124974733831094,-0.0001724043815175874,-0.38822921918425574,5.453224707705976,-0.06364012726582871,6.966435465317952,55.45904922485352,0.37804736858161386,2.4737002666500644e-05,0.4998921050749327,0.0,0.0,0.0,1.0,0.0,1.402386978473882e-18,-9.568369488545757e-19,1.810797894736842,0.00025210526315789427,-0.00018052631578947424,0.0,0.0,0.0,55.45904922485352,3.9159998893737793,False,True,False,True,True,False,False,1696.9682017231285,2879224.9406546587,1641.8525940294537,2695640.0187197663,1672.5641794698654,2797519.93375393,1720.8779705677618,2961259.5224195593,-0.24220899537892215,-0.11721162921360657,8.84962117113691,3,0.03,-0.008770896957916241,0.6590064704331332,-0.00188748854606412
45,4951,0.4499999999999977,0.34524908919245134,3.751693399070006e-05,0.6072314941200049,-0.004155479086856123,0.31091044833568826,6.1493845040214e-05,0.9504301243793607,-0.006209797613415078,0.6627304439412967,-0.01254613546002714,2.014030718987122,-0.013649093395698945,-0.1243873950263662,0.026037844647016143,-3.2968190637304984,-0.07609062623768616,55.47444248199463,0.3654927015304565,0.0053506148979067,0.5971288681030273,,,,,,,,0.4956588730866894,0.5649522894445568,0.5476403512611434,0.48952649395468284,97100.0,93800.0,95500.0,98400.0,55.47377920150757,0.18940923636312595,0.016181055754491976,-0.0017135726239365665,-0.30316302210228435,5.169314804765071,-0.0762230630931645,7.104470242034114,55.47444248199463,0.43804736858161386,2.4737002666500644e-05,0.4998921050749327,0.0,0.0,0.0,1.0,0.0,1.402386978473882e-18,-9.568369488545757e-19,1.857797894736842,0.00025210526315789427,-0.00018052631578947424,0.0,0.0,0.0,55.48947548866272,3.9159998893737793,False,True,False,True,True,False,False,1682.896323611993,2832802.111738851,1639.4162934100743,2687237.4498230685,1662.4647670429817,2763447.4502497334,1709.3156377348307,2921961.787754872,-0.32125582415386145,-0.13872831593426982,8.782875282383626,3,0.03,-0.00875712482452038,0.6337325904805032,0.0008087070953654971
46,4952,0.4600000000000028,0.36495919219962364,-9.211339527751205e-05,0.6062944016811386,-0.004324824571843727,0.29653592373704074,0.00016693989191781834,0.955011892049997,-0.006060589411344877,0.630239888744371,-0.012904295187988565,2.066029901853919,-0.012218226241550844,-0.1495504470550808,0.013321428490049244,-3.5875362306595795,-0.0762801497228677,55.4803466796875,0.3853986859321594,0.0050685014575719,0.5966063737869263,,,,,,,,0.49608338034516475,0.5656631266270422,0.5580341535710105,0.49988084011945677,94900.0,94600.0,95200.0,97100.0,55.48472142219544,0.2827656761228917,-0.006324538669166587,-0.002829469217969869,-0.20980658234251864,4.848890923400055,-0.07152988668001943,7.281029307462733,55.4803466796875,0.43804736858161386,2.4737002666500644e-05,0.4998921050749327,0.0,0.0,0.0,1.0,0.0,1.402386978473882e-18,-9.568369488545757e-19,1.857797894736842,0.00025210526315789427,-0.00018052631578947424,0.0,0.0,0.0,55.48947548866272,3.9159998893737793,False,True,False,True,True,False,False,1651.3401248255732,2728432.2665642463,1648.1820215745997,2716462.85273852,1659.728132817357,2754425.0988187683,1687.8445936525889,2849434.870629352,-0.3689883716623772,-0.12761327341258002,8.729888491276785,3,0.03,-0.008739689448304654,0.6002164340477807,0.0008070969650158024
47,4953,0.4700000000000008,0.38531463886823264,-0.00017552121250270252,0.6051463989820516,-0.004397621641415676,0.281097453133301,0.00026585456846412527,0.9596691159390403,-0.005826566547876684,0.594991907819062,-0.01301287364490376,2.116694003228088,-0.010538457958381264,-0.17396667540905392,-0.0021740655590476725,-3.810103687272639,-0.07587132660073737,55.48947548866272,0.3853986859321594,0.0050685014575719,0.5966063737869263,,,,,,,,0.5030481182201431,0.5657827534054886,0.5709907068715765,0.5181023530760269,91500.0,95200.0,95200.0,94300.0,55.49029898643494,0.28218482773154036,-0.03104519222629748,-0.002849667151817118,-0.21038743073387006,4.521880995346068,-0.06138284679417886,7.497131764106643,55.48947548866272,0.43804736858161386,2.4737002666500644e-05,0.4998921050749327,0.0,0.0,0.0,1.0,0.0,1.402386978473882e-18,-9.568369488545757e-19,1.857797894736842,0.00025210526315789427,-0.00018052631578947424,0.0,0.0,0.0,55.48947548866272,3.9159998893737793,False,True,False,True,True,False,False,1616.9061634349575,2614925.9842078323,1666.7631018730963,2778741.0311916415,1671.395109111404,2794128.039451303,1663.213257725301,2766657.207647538,-0.463693124671837,-0.12685202718989397,8.755811767359429,3,0.03,-0.00875461401642856,0.5689318727221292,0.0008084752260751028
48,4954,0.4799999999999988,0.406338116729682,-0.00021357838393780613,0.6038097859614939,-0.004406610031131484,0.26476700863988256,0.0003573029343239295,0.9643022789864882,-0.0055483114364330375,0.5575253792671974,-0.012963645607604487,2.1670800362893097,-0.00916494200711127,-0.19679420268641695,-0.00525263949957839,-3.97337595064796,-0.07451147422528646,55.5021595954895,0.3853986859321594,0.0050685014575719,0.5966063737869263,,,,,,,,0.5141752224928008,0.5705786277874161,0.5824367383938678,0.531820953929646,92300.0,97100.0,97400.0,94600.0,55.50347113609314,0.23217400227460339,-0.04722826986627259,-0.0020858740219988968,-0.2603982561908071,4.225901493280455,-0.054442560313900636,7.758817673781859,55.5021595954895,0.43804736858161386,2.4737002666500644e-05,0.4998921050749327,0.0,0.0,0.0,1.0,0.0,1.402386978473882e-18,-9.568369488545757e-19,1.857797894736842,0.00025210526315789427,-0.00018052631578947424,0.0,0.0,0.0,55.48947548866272,3.9159998893737793,False,True,False,True,True,False,False,1599.7340819262236,2558684.900564163,1687.5988301825173,2848515.115368207,1693.7711346176438,2869756.8885134864,1645.56336406459,2707796.9706421997,-0.5377205594551802,-0.09927079689709656,8.810413915641117,3,0.03,-0.008782480177666663,0.5356294253431156,0.0008110486234818351
49,4955,0.4899999999999968,0.4280150547174541,-0.0002163360799229457,0.6022850585768206,-0.004389791187552879,0.24759459483939716,0.0004443600420823991,0.9688536777469535,-0.005261212482276508,0.5182427036807997,-0.012861334789872796,2.2168052973514443,-0.008266333768903145,-0.2177278365940262,0.006139335811193148,-4.098328190877463,-0.07310273833057526,55.51310181617737,0.3853986859321594,0.0050685014575719,0.5966063737869263,,,,,,,,0.531215804795818,0.578148210366569,0.587653617769134,0.5416334267334162,91700.0,97400.0,97700.0,94300.0,55.51106882095337,0.19998752705148198,-0.05279738643822161,-0.0011459272148614417,-0.2925847314139285,3.949315805660701,-0.04574946307576032,8.06652466818484,55.51310181617737,0.5010473685816139,2.4737002666500644e-05,0.4998921050749327,0.0,0.0,0.0,1.0,0.0,1.402386978473882e-18,-9.568369488545757e-19,1.874797894736842,0.00025210526315789427,-0.00018052631578947424,0.0,0.0,0.0,55.51867938041687,3.8949999809265137,False,True,False,True,True,False,False,1605.4731847221115,2577584.815997839,1704.4976216272335,2904869.3653983474,1715.3170305722688,2942277.013753962,1638.596189397529,2684920.2989501907,-0.5647957218459383,-0.12141293420536949,8.950797517992022,3,0.03,-0.008808867405039411,0.5020198688256781,0.0008134854436061312
50,4956,0.500000000000002,0.45029536741531384,-0.0001985880671162684,0.6005456871804975,-0.0043760928028415335,0.2295648221865048,0.00053168355827495,0.9732833911758965,-0.0049840320954892105,0.47744693937686117,-0.01278331811176778,2.264214080016565,-0.007625381919014832,-0.2366623282325642,0.021667950386040847,-4.203689100132138,-0.07353753264480985,55.51867938041687,0.3853986859321594,0.0050685014575719,0.5966063737869263,,,,,,,,0.5519706047971191,0.5890523036355206,0.593368652229059,0.5538981196164794,93200.0,98700.0,101000.0,93500.0,55.52174425125122,0.18100369735109384,-0.05429802039409727,-0.00017656558671409186,-0.3115685611143166,3.6497778785410584,-0.03439662651726244,8.406269397279829,55.51867938041687,0.5010473685816139,2.4737002666500644e-05,0.4998921050749327,0.0,0.0,0.0,1.0,0.0,1.402386978473882e-18,-9.568369488545757e-19,1.874797894736842,0.00025210526315789427,-0.00018052631578947424,0.0,0.0,0.0,55.51867938041687,3.8949999809265137,False,True,False,True,True,False,False,1622.8223001424494,2633842.474608949,1719.1504519804193,2954353.773069845,1730.2695085081614,2993245.67017922,1639.1375887571387,2686775.0266984724,-0.635326779867281,-0.0807336126988834,9.168587182476049,3,0.03,-0.008837408330664827,0.46287755477679904,0.0008161211544728924
51,4957,0.51,0.47310789616408516,-0.00017489590222305863,0.5985404352190659,-0.004378429458072015,0.2106752724197532,0.0006167143053734156,0.9775461005036075,-0.004732026716870381,0.435413958906586,-0.01276530864963521,2.307907227853593,-0.00691518914190516,-0.2526062181601998,0.029733235184860242,-4.297030698750194,-0.07686914591408192,55.53185153007507,0.3853986859321594,0.0050685014575719,0.5966063737869263,,,,,,,,0.5690018255542983,0.6073809661494972,0.6110971965542149,0.5697589604234432,94000.0,99700.0,98400.0,94300.0,55.530717849731445,0.1561674786008795,-0.05711972955284483,0.0009099916575035145,-0.3364047798645309,3.3189226196453028,-0.03516479936556088,8.770584265292978,55.53185153007507,0.5010473685816139,2.4737002666500644e-05,0.4998921050749327,0.0,0.0,0.0,1.0,0.0,1.402386978473882e-18,-9.568369488545757e-19,1.874797894736842,0.00025210526315789427,-0.00018052631578947424,0.0,0.0,0.0,55.51867938041687,3.8949999809265137,False,True,False,True,True,False,False,1638.7369294879054,2685003.7626492963,1739.2585401792037,3024764.234471322,1745.88245409762,3048836.4681832828,1644.1297196981898,2702936.970524511,-0.7129442870417173,-0.0996527267982846,9.33248478882855,3,0.03,-0.008862139344756718,0.426015483953917,0.0008184050258316397
52,4958,0.519999999999998,0.49637958611034577,-0.00015592813308920104,0.5962046898239793,-0.004395394243853099,0.19099050486368171,0.0006858289716163262,0.9815818036210628,-0.004529234360666537,0.3924449234154228,-0.0128091122366588,2.347924705304182,-0.005999689248840065,-0.263744242585073,0.02734469006729897,-4.376887837747966,-0.0817025165423767,55.5394492149353,0.3853986859321594,0.0050685014575719,0.5966063737869263,,,,,,,,0.5785320291891907,0.6302538140586279,0.6387463055618113,0.5860436142964367,94900.0,101000.0,101000.0,95200.0,55.54086923599243,0.1546840319495987,-0.06318077485994389,0.0018946200628985846,-0.3378882265158117,2.9864443083110843,-0.05693828123723625,9.182783637160426,55.5394492149353,0.5640473685816139,2.4737002666500644e-05,0.4998921050749327,0.0,0.0,0.0,1.0,0.0,1.402386978473882e-18,-9.568369488545757e-19,1.855797894736842,0.00025210526315789427,-0.00018052631578947424,0.0,0.0,0.0,55.55909824371338,3.8949999809265137,False,True,False,True,True,False,False,1651.7064549330667,2727487.7690277044,1769.2810605432503,3131923.9013239266,1771.4543914944488,3140503.3977070116,1654.5973067193424,2737467.2475088136,-0.7608234910928466,-0.1133507001957248,9.626591015009751,3,0.03,-0.008888070662855345,0.3835259865499706,0.0008207997434311674
53,4959,0.5300000000000031,0.5200508346028876,-0.00014688019811614377,0.5934790175759094,-0.004418352411244806,0.17064471669062364,0.0007215989843070566,0.9853224538811914,-0.004401464350112225,0.3488612194149029,-0.012898823445763133,2.3852559311372104,-0.005007640838498457,-0.26963568959137546,0.020333792377896866,-4.442856581366812,-0.08466541905302674,55.550124645233154,0.3853986859321594,0.0050685014575719,0.5966063737869263,,,,,,,,0.5842864743090186,0.6489676083274107,0.6626521946380295,0.6003421364748716,94900.0,103100.0,104200.0,95200.0,55.55044674873352,0.2181733364283037,-0.07223416117838191,0.002207555615672933,-0.2743989220371067,2.663077579227499,-0.07998042913090182,9.67407416183794,55.550124645233154,0.5640473685816139,2.4737002666500644e-05,0.4998921050749327,0.0,0.0,0.0,1.0,0.0,1.402386978473882e-18,-9.568369488545757e-19,1.855797894736842,0.00025210526315789427,-0.00018052631578947424,0.0,0.0,0.0,55.55909824371338,3.836999893188477,False,True,False,True,True,False,False,1668.3270013059227,2783865.842238051,1803.9337318808239,3255836.1642733775,1804.3664841288657,3257104.8556291447,1672.336545722405,2797141.4997893795,-0.8149990985740541,-0.14312309144583224,10.00202701486646,3,0.03,-0.00891004185707847,0.34337011409968354,0.003563089662594603
54,4960,0.5400000000000011,0.5440811655892662,-0.0001477997497461398,0.5903300664403708,-0.004439260896927945,0.1497978427765639,0.0007150944126562382,0.9887064214933359,-0.004357611529771172,0.30494327253010794,-0.01301465063097865,2.420383262682907,-0.004133596337350341,-0.27341566254072863,0.016548960871869637,-4.501600017862188,-0.08322346314713178,55.55909824371338,0.3853986859321594,0.0050685014575719,0.5966063737869263,,,,,,,,0.5923862548899947,0.6654969809745169,0.679971016205861,0.6118915673876777,96500.0,106000.0,106000.0,97100.0,55.56045484542847,0.3410802281143248,-0.07830551077717152,0.0013860512999882377,-0.15149203035108555,2.32197513416285,-0.07754269367977855,10.233596176565571,55.55909824371338,0.5640473685816139,2.4737002666500644e-05,0.4998921050749327,0.0,0.0,0.0,1.0,0.0,1.402386978473882e-18,-9.568369488545757e-19,1.855797894736842,0.00025210526315789427,-0.00018052631578947424,0.0,0.0,0.0,55.55909824371338,3.836999893188477,False,True,False,True,True,False,False,1690.0372832256212,2857780.4186562574,1834.163994388488,3363286.780353409,1835.772840673664,3368161.1074471753,1694.78620293424,2873205.2821211386,-0.8639914332514382,-0.13708295227144732,10.466760915563356,3,0.03,-0.008930937199527854,0.3002283787248705,0.0008247584025864799
55,4961,0.5499999999999992,0.5684430124732582,-0.000155133471917343,0.5867668588831593,-0.0044555200730006005,0.12857577912620816,0.0006701380339435276,0.9916894515310642,-0.004384212551832901,0.26085327878110554,-0.01314117437851154,2.452698603381877,-0.0034076370462155312,-0.2800059299939454,0.01984826190821814,-4.556675578967574,-0.07844917158557661,55.569249629974365,0.3853986859321594,0.0050685014575719,0.5966063737869263,,,,,,,,0.6085136473146775,0.6946359373301016,0.704194438738313,0.6234016230258126,99000.0,106400.0,106400.0,98700.0,55.57092881202698,0.46463245148804927,-0.07362846884469681,-0.00032494898734127756,-0.02793980697736098,1.9405208526132394,-0.058644215830021426,10.799522424747412,55.569249629974365,0.6240473685816139,2.4737002666500644e-05,0.4998921050749327,0.0,0.0,0.0,1.0,0.0,1.402386978473882e-18,-9.568369488545757e-19,1.806797894736842,0.00025210526315789427,-0.00018052631578947424,0.0,0.0,0.0,55.5888352394104,3.836999893188477,False,True,False,True,True,False,False,1709.952066409553,2924434.7350451127,1860.7125385394677,3459376.8467901633,1867.581598131469,3485361.1950044855,1716.4036188386992,2946231.7160318657,-0.9239529645228117,-0.14132499570901974,10.909511594064941,3,0.03,-0.008949113680644846,0.2568029516236446,0.0008264369728412888
56,4962,0.5600000000000043,0.5931052925148913,-0.00016373821260654543,0.5828453419202619,-0.004470255312275973,0.1070345007793134,0.0005941343204823778,0.994245080181328,-0.004464467125149893,0.21660068906755725,-0.013270840892741926,2.4813483021447427,-0.0026985261935720244,-0.29009729402420037,0.02828369360002781,-4.592739335652903,-0.07449522702728134,55.578827142715454,0.3853986859321594,0.0050685014575719,0.5966063737869263,,,,,,,,0.6376009991255112,0.7399361857532496,0.7419470934082424,0.6434140906562178,99000.0,108700.0,108700.0,100000.0,55.58103346824646,0.5221602641670577,-0.06395371814540393,-0.0018260742748272775,0.029588005701647515,1.5229125692343417,-0.059576787562415606,11.32441165731737,55.578827142715454,0.6240473685816139,2.4737002666500644e-05,0.4998921050749327,0.0,0.0,0.0,1.0,0.0,1.402386978473882e-18,-9.568369488545757e-19,1.806797894736842,0.00025210526315789427,-0.00018052631578947424,0.0,0.0,0.0,55.5888352394104,3.836999893188477,False,True,False,True,True,False,False,1725.508293137541,2975741.933769866,1896.7152591724266,3596864.5797037883,1911.6689340476887,3655825.04759215,1736.7910803940802,3015352.670943981,-0.9122008890854423,-0.09209935314931189,11.404863768726099,3,0.03,-0.008964517318442458,0.2131327451736841,0.0008278594752528668
57,4963,0.5700000000000023,0.6180124921335144,-0.00016879525154351444,0.5786578379415956,-0.004488559933299257,0.08517526858651144,0.00048542284622747313,0.9963557551475282,-0.004602340773281387,0.17209349135469557,-0.013402828805532535,2.5060806167488163,-0.0019053108581323212,-0.2966447512830255,0.035628707055997536,-4.584323351412867,-0.07469844349206833,55.5888352394104,0.3853986859321594,0.0050685014575719,0.5966063737869263,,,,,,,,0.6775966268601658,0.7786759877936903,0.7773944867861569,0.6789337511021994,99300.0,110700.0,113200.0,100000.0,55.590970277786255,0.4988747889550407,-0.06780324541644095,-0.0020124399019162977,0.006302530489630299,1.0643364251752705,-0.0859680722848089,11.860616682028752,55.5888352394104,0.6240473685816139,2.4737002666500644e-05,0.4998921050749327,0.0,0.0,0.0,1.0,0.0,1.402386978473882e-18,-9.568369488545757e-19,1.806797894736842,0.00025210526315789427,-0.00018052631578947424,0.0,0.0,0.0,55.5888352394104,3.795000076293945,False,True,False,True,True,False,False,1747.5925029741388,3052402.192514304,1951.5544925315112,3812360.19889603,1970.1589713042501,3885704.8351721736,1764.3201113383375,3111823.940622663,-1.0571396734842033,-0.16895187729535605,11.884534380866764,3,0.03,-0.008976390168393288,0.17200503096662317,0.0008289559148023591
58,4964,0.5800000000000003,0.6430681216713681,-0.00016732340384821505,0.5743133379272891,-0.004511863229694832,0.06300563648900134,0.0003320781668249987,0.9980029171224418,-0.004822429470795207,0.1272643545607015,-0.013537174754373837,2.5267598141134715,-0.0010717705395103657,-0.29034622640654073,0.03605810878434593,-4.532270965867429,-0.0782715877686799,55.59930920600891,0.3853986859321594,0.0050685014575719,0.5966063737869263,,,,,,,,0.7142690464709133,0.7872779743149213,0.7917887188567478,0.7216518010848852,102700.0,116300.0,116700.0,104200.0,55.60100865364075,0.4525162082594294,-0.08988157762314036,-0.0009736780387990222,-0.04005605020598101,0.5274701587876081,-0.10269288950798855,12.526849997752098,55.59930920600891,0.6240473685816139,2.4737002666500644e-05,0.4998921050749327,0.0,0.0,0.0,1.0,0.0,1.402386978473882e-18,-9.568369488545757e-19,1.806797894736842,0.00025210526315789427,-0.00018052631578947424,0.0,0.0,0.0,55.5888352394104,3.795000076293945,False,True,False,True,True,False,False,1788.9495587251574,3201752.264662059,2015.593693710787,4066234.7347408244,2027.9515936754724,4113757.6914039003,1807.1276596892735,3266716.4373876015,-1.0830699779402526,-0.182661494539841,12.450165015669352,3,0.03,-0.00898626658389573,0.12797501661826483,0.0008298679866813893
59,4965,0.5899999999999983,0.6681320768407474,-0.00015915166496881624,0.5699239728849772,-0.004533465508131184,0.04060505104878145,0.0001254931328501404,0.9991649822583285,-0.0051401675511678156,0.08219629564220746,-0.01366672398439457,2.542270186409688,-0.00030400291951517797,-0.2695893065421115,0.029972689592397718,-4.480853407686294,-0.08120866070702579,55.6094138622284,0.3853986859321594,0.0050685014575719,0.5966063737869263,,,,,,,,0.7305800579474204,0.7782226986824927,0.7925625488599548,0.7486052647639547,105600.0,118800.0,118800.0,106400.0,55.61105942726135,0.47032473617035053,-0.10792530579988513,5.8419283085734335e-05,-0.022247522295059868,-0.09497442584954215,-0.09418205289304124,13.328822374121023,55.6094138622284,0.684047368581614,2.4737002666500644e-05,0.4998921050749327,0.0,0.0,0.0,1.0,0.0,1.402386978473882e-18,-9.568369488545757e-19,1.724797894736842,0.00025210526315789427,-0.00018052631578947424,0.0,0.0,0.0,55.61935067176819,3.795000076293945,False,True,False,True,True,False,False,1844.6605863460054,3405986.315529486,2069.523071437094,4281368.903799899,2071.5162325524966,4287825.455671214,1860.6557210180072,3464253.2183696046,-1.1827856384765767,-0.14318957553479267,13.273248012260293,3,0.03,-0.008993543369720882,0.08105764745228727,0.0008305399867323398
60,4966,0.5999999999999963,0.6930387819502639,-0.00014723895499496343,0.5656100869177277,-0.004538107443130948,0.01814301499176378,-0.00012390651919573118,0.9998250953216856,-0.005529590517035308,0.03715273559318238,-0.013772105424775633,2.5506234009492257,0.0003723224331528607,-0.24255358411024014,0.02428272769925543,-4.4759592657609515,-0.08048238573736906,55.61935067176819,0.3853986859321594,0.0050685014575719,0.5966063737869263,,,,,,,,0.7252163084357084,0.7904899428403469,0.8075500898965362,0.7463221962271067,108300.0,121500.0,121000.0,109100.0,55.62319755554199,0.5984571958264754,-0.10114832655367667,0.00016310319219384791,0.10588493736106497,-0.7247923573277918,-0.08759026013619571,14.08272746972912,55.61935067176819,0.684047368581614,2.4737002666500644e-05,0.4998921050749327,0.0,0.0,0.0,1.0,0.0,1.402386978473882e-18,-9.568369488545757e-19,1.724797894736842,0.00025210526315789427,-0.00018052631578947424,0.0,0.0,0.0,55.61935067176819,3.795000076293945,False,True,False,True,True,False,False,1892.0978633617344,3580732.5881330906,2109.316604501706,4444991.401006262,2107.4578865103576,4438454.208720498,1908.0029676925924,3641091.0315955905,-1.2709545595997025,-0.17150719582356716,14.07478582946517,3,0.03,-0.008997200377678417,0.03681754312900872,0.0008308777058287703
61,4967,0.6100000000000014,0.7176374215713165,-0.00013717799148904445,0.5615176730776165,-0.004506879052380864,-0.004172957868776191,-0.00038596078838376796,0.9999810625697381,-0.005924544592553429,-0.007529550484865675,-0.013823987396786827,2.550518907231966,0.0010380424813016603,-0.21761932113415702,0.02457222938073391,-4.50256412582037,-0.07717683064758461,55.62938904762268,0.959710657596588,0.0036450251936912,0.633486807346344,,,,,,,,0.7192070712696235,0.8349073573825718,0.8455906225576232,0.7334551320603997,110300.0,122400.0,122200.0,111100.0,55.63017272949219,0.7891377642045173,-0.08491806347236924,-0.00039650582223337374,0.2965655057391069,-1.307427290879919,-0.10011898668672292,14.621923727833476,55.62938904762268,0.684047368581614,2.4737002666500644e-05,0.4998921050749327,0.0,0.0,0.0,1.0,0.0,1.402386978473882e-18,-9.568369488545757e-19,1.724797894736842,0.00025210526315789427,-0.00018052631578947424,0.0,0.0,0.0,55.61935067176819,3.7260000705718994,False,True,False,True,True,False,False,1915.1515439834052,3665349.761300765,2151.6441708623647,4628964.014849894,2152.4325582067404,4634784.572483178,1935.9379952554514,3746192.5350933187,-1.2359407256151265,-0.16935921261049836,14.62923091744641,3,0.03,-0.00899730290102408,-0.010222705515419282,-0.001936210886142599
62,4968,0.6199999999999994,0.7418483671180376,-0.00013571854102032197,0.5578250221671429,-0.004426833630398618,-0.026199851699219023,-0.000629895064689459,0.9996467246718488,-0.006262814683541833,-0.05163637631989444,-0.013792095913633175,2.5425421568859616,0.001775034086579927,-0.1933090742456984,0.028428096567899592,-4.488702119173649,-0.075519171318975,55.639439821243286,0.959710657596588,0.0036450251936912,0.633486807346344,,,,,,,,0.7368458004924421,0.8707298960454882,0.8777594797398387,0.7452191426596091,111100.0,125500.0,126100.0,112800.0,55.64167428016663,0.9052804690150269,-0.09760429032356024,-0.0009045678777874381,0.4127082105496166,-1.9472521826788105,-0.10877770519990786,15.010328423486312,55.639439821243286,0.7400473685816139,2.4737002666500644e-05,0.4998921050749327,0.0,0.0,0.0,1.0,0.0,1.402386978473882e-18,-9.568369488545757e-19,1.611797894736842,0.00025210526315789427,-0.00018052631578947424,0.0,0.0,0.0,55.65855312347412,3.7260000705718994,False,True,False,True,True,False,False,1925.5893558556927,3705417.2517835842,2207.8148227212655,4878178.763061432,2206.5775819230435,4872890.205808205,1951.000157045085,3804501.586631488,-1.1732660871886398,-0.2009578425785216,15.072416699065194,3,0.03,-0.008996340454283835,-0.05172364174908414,-0.0019360037685345452
63,4969,0.6299999999999975,0.7657218658290877,-0.00014831551903529328,0.5547221937303612,-0.004295899032850803,-0.04794427460595363,-0.000847908388078044,0.9988404140979549,-0.006541199822677191,-0.09525325680052432,-0.013654613203159865,2.5286224389844785,0.002570229076722588,-0.16006671267310418,0.029943028567543356,-4.395122031296074,-0.0788113326046816,55.651577949523926,0.959710657596588,0.0036450251936912,0.633486807346344,,,,,,,,0.7746321761199113,0.8580488381655007,0.8726266550997314,0.7864240794400649,110300.0,130200.0,130200.0,112400.0,55.65073275566101,0.820855621422081,-0.14512821832302533,-0.0009160494022168621,0.32828336295667065,-2.7642668034151323,-0.08867443045420378,15.422099910639098,55.651577949523926,0.7400473685816139,2.4737002666500644e-05,0.4998921050749327,0.0,0.0,0.0,1.0,0.0,1.402386978473882e-18,-9.568369488545757e-19,1.611797894736842,0.00025210526315789427,-0.00018052631578947424,0.0,0.0,0.0,55.65855312347412,3.7260000705718994,False,True,False,True,True,False,False,1951.983897391006,3811513.020856767,2260.814631732388,5113614.642525662,2248.551746555588,5056969.888969769,1974.9783054907805,3901142.6519646114,-1.249010944950619,-0.1574177355574539,15.594965141738072,3,0.03,-0.008991598910083378,-0.09594188165827575,-0.0019349833928065027
64,4970,0.6400000000000026,0.7894761882296824,-0.00017609618575560625,0.5523747440301336,-0.004124720976585186,-0.06958752371407935,-0.0010614514111792733,0.9975667579370863,-0.006831828247154185,-0.1388160435529403,-0.013399518908193853,2.510438009272793,0.0033474913808587813,-0.1113248904942333,0.029575409799764096,-4.2882708864689745,-0.08589787749999132,55.65855312347412,0.959710657596588,0.0036450251936912,0.633486807346344,,,,,,,,0.7966687964480641,0.8165793568708064,0.8392692190879257,0.8146429001518413,114100.0,132200.0,130200.0,114100.0,55.660255432128906,0.559001693160171,-0.17657424776443603,5.791028005968424e-05,0.0664294346947606,-3.6385508873352554,-0.049928351082788404,15.864489666969442,55.65855312347412,0.7400473685816139,2.4737002666500644e-05,0.4998921050749327,0.0,0.0,0.0,1.0,0.0,1.402386978473882e-18,-9.568369488545757e-19,1.611797894736842,0.00025210526315789427,-0.00018052631578947424,0.0,0.0,0.0,55.65855312347412,3.7260000705718994,False,True,False,True,True,False,False,2003.0895620932472,4016435.9856716655,2281.6584274073093,5205892.091859458,2261.929295077877,5115173.268817615,2018.0937289806086,4075497.838210015,-1.417853983385994,-0.13306580662502027,16.247125847023028,3,0.03,-0.008983262424352649,-0.1428201920533463,-0.0019331893891365616
65,4971,0.6500000000000006,0.8134850323492414,-0.00021316320515812063,0.550903494371422,-0.003925151930574882,-0.09141010128865008,-0.0013008722204346985,0.995804747074539,-0.007236694989194529,-0.18297366698828874,-0.013016846705973903,2.487956294270586,0.0040676327324931805,-0.05033960410851001,0.03365651766982979,-4.287119518426643,-0.09155685535829655,55.67005467414856,0.959710657596588,0.0036450251936912,0.633486807346344,,,,,,,,0.7730100952586416,0.8005785417761012,0.8148757312147163,0.789100591192559,118600.0,129300.0,127900.0,119300.0,55.67061185836792,0.30207361549890044,-0.14147521000913368,0.0022275262974869384,-0.19049864296650995,-4.332171644170092,-0.025721325921728863,16.14871839634513,55.67005467414856,0.790047368581614,2.4737002666500644e-05,0.4998921050749327,0.0,0.0,0.0,1.0,0.0,1.402386978473882e-18,-9.568369488545757e-19,1.477797894736842,0.00025210526315789427,-0.00018052631578947424,0.0,0.0,0.0,55.68863582611084,3.720999956130981,False,True,False,True,True,False,False,2050.3120598736896,4205406.020643814,2267.18852156489,5141258.502686728,2256.8100418910653,5093118.607192867,2059.751773962658,4243805.906166082,-1.347531996183784,-0.07070080035705863,16.680405199280678,3,0.03,-0.0062135182872536795,-0.1840555963577301,-0.0019310250715209472
66,4972,0.6599999999999986,0.838185646950901,-0.0002455801487833688,0.5504027405627401,-0.0036989559363639784,-0.11363260919508358,-0.001574161734018903,0.9935147054107119,-0.007807083050805098,-0.22828531373549985,-0.012496513766901994,2.4584449055822497,0.004750280322500959,0.014356068122089963,0.04260232785079029,-4.425928990403672,-0.09141188460204644,55.679113149642944,0.959710657596588,0.0036450251936912,0.633486807346344,,,,,,,,0.718133871701738,0.821847823780282,0.8162936992628818,0.7264585672598483,119300.0,127900.0,128500.0,119500.0,55.68199133872986,0.22395666041939058,-0.06524967002292256,0.003906794425455688,-0.26861559804601987,-4.862706520705585,-0.034346632366908735,16.107900530646756,55.679113149642944,0.790047368581614,2.4737002666500644e-05,0.4998921050749327,0.0,0.0,0.0,1.0,0.0,1.402386978473882e-18,-9.568369488545757e-19,1.477797894736842,0.00025210526315789427,-0.00018052631578947424,0.0,0.0,0.0,55.68863582611084,3.720999956130981,False,True,False,True,True,False,False,2057.3800873534556,4233261.1962251775,2246.6041976673996,5048879.341658812,2255.7969497326108,5090255.278044849,2066.8364957448393,4272356.2496196,-1.130317226094911,-0.07439888532155228,16.745562921274285,3,0.03,-0.0062047900106746825,-0.22513421476287807,-0.0019283125147815895
67,4973,0.6699999999999966,0.863898459213255,-0.0002534089254517803,0.5509891198384307,-0.0034400834096694416,-0.13625053100036602,-0.0018518991383149974,0.9906667093921318,-0.008485211105590303,-0.274895835047739,-0.011852408723650641,2.416759466928778,0.005406742924061222,0.07830827062405629,0.047402013539982156,-4.5996023239763195,-0.0876604218300425,55.68863582611084,0.959710657596588,0.0036450251936912,0.633486807346344,,,,,,,,0.6772384085023244,0.8315213190144407,0.8243832239039615,0.6834235761618384,114500.0,127900.0,131300.0,115800.0,55.69102120399475,0.33378837859584987,-0.030615544346176936,0.0019479046474253198,-0.1587838798695606,-5.487579153690971,-0.05457906227604577,15.748524404141676,55.68863582611084,0.790047368581614,2.4737002666500644e-05,0.4998921050749327,0.0,0.0,0.0,1.0,0.0,1.402386978473882e-18,-9.568369488545757e-19,1.477797894736842,0.00025210526315789427,-0.00018052631578947424,0.0,0.0,0.0,55.68863582611084,3.720999956130981,False,True,False,True,True,False,False,2023.528093806416,4096718.460104512,2244.19969551111,5035760.287507644,2264.7778724839777,5130495.154686489,2032.4371473314618,4133289.792935035,-1.100275153500374,-0.11059843684272683,16.661627097269278,3,0.03,-0.0089454776611326,-0.2660216329811423,-0.004676217481235889
68,4974,0.6800000000000017,0.8905867226186214,-0.00021650505524343095,0.552849177996289,-0.0031555053894994074,-0.1589885883963097,-0.0020843684253925416,0.9872731774710346,-0.009114250659398474,-0.3224312733933492,-0.011168555722585675,2.3586613134614156,0.00601172119786386,0.14425595951137576,0.04475475008418934,-4.672414185555682,-0.08913215387292306,55.69899225234985,0.959710657596588,0.0036450251936912,0.633486807346344,,,,,,,,0.6752927364585616,0.7852672779370591,0.8112940850132602,0.6865794055762569,113200.0,130200.0,130200.0,112800.0,55.70085167884827,0.5064316530276103,-0.07484329951617608,-0.0033142612090859324,0.01385939456219976,-6.297301834441348,-0.05294371219775269,15.20240512668448,55.69899225234985,0.790047368581614,2.4737002666500644e-05,0.4998921050749327,0.0,0.0,0.0,1.0,0.0,1.402386978473882e-18,-9.568369488545757e-19,1.477797894736842,0.00025210526315789427,-0.00018052631578947424,0.0,0.0,0.0,55.68863582611084,3.720999956130981,False,True,False,True,True,False,False,1984.5462302282344,3939077.8881448507,2247.0446331476164,5045888.312335276,2267.457386563272,5140420.301562846,1985.6857579437867,3944069.079503727,-1.2447403845666951,-0.1532805202415134,16.406906222479705,3,0.03,-0.006178707633811894,-0.3174915027580248,-0.004664432651825438
69,4975,0.6899999999999997,0.9176300898301352,-0.00012335194869859834,0.556251654986298,-0.0028871355224024437,-0.18146701422584674,-0.0022417511927852354,0.9833902387902889,-0.009522130538890457,-0.3702985617499967,-0.010619833253029143,2.2867923532388126,0.006575805715173267,0.21561463104604195,0.04897793040292932,-4.630689438659234,-0.10239660833944263,55.71037173271179,0.959710657596588,0.0036450251936912,0.633486807346344,,,,,,,,0.6915498942118328,0.7043213305491356,0.7653103488436706,0.7036881136733615,113200.0,126800.0,127100.0,112800.0,55.71127009391785,0.6196626144344082,-0.1400667560705612,-0.004270107321052025,0.12709035596899784,-7.079870818242805,-0.03979040234527056,14.58962771414612,55.71037173271179,0.8380473685816139,2.4737002666500644e-05,0.4998921050749327,0.0,0.0,0.0,1.0,0.0,1.402386978473882e-18,-9.568369488545757e-19,1.317797894736842,0.00025210526315789427,-0.00018052631578947424,0.0,0.0,0.0,55.719401597976685,3.805000066757202,False,True,False,True,True,False,False,1970.8798775312705,3882886.8808463425,2221.1197872734465,4933021.697871824,2244.335951969287,5036061.4217562545,1959.21605615725,3836548.57227207,-1.3068959961698035,-0.05231421121370683,16.173541832715568,3,0.03,-0.00616045602410942,-0.368539915560777,-0.004650654138697754
70,4976,0.6999999999999977,0.9437195429482323,1.967387758628729e-05,0.5615069042966504,-0.002705608163521611,-0.20353148361131188,-0.0023507722455048514,0.9790618411179621,-0.009646557860572544,-0.4183034797507721,-0.010404822247348695,2.2138437047759902,0.0072141080729297416,0.2881817441724631,0.07451707542659776,-4.604370055354625,-0.12116172141098731,55.719401597976685,0.959710657596588,0.0036450251936912,0.633486807346344,,,,,,,,0.6854111114717956,0.6567958490000543,0.6974367685109059,0.6883102696003596,113600.0,123700.0,126300.0,111900.0,55.720897912979126,0.6257533796282462,-0.14393528524251867,0.0065265059723081725,0.13318112116283587,-7.613415158185488,-0.050540257261331045,13.927400208931397,55.719401597976685,0.8380473685816139,2.4737002666500644e-05,0.4998921050749327,0.0,0.0,0.0,1.0,0.0,1.402386978473882e-18,-9.568369488545757e-19,1.317797894736842,0.00025210526315789427,-0.00018052631578947424,0.0,0.0,0.0,55.719401597976685,3.805000066757202,False,True,False,True,True,False,False,1976.198251295882,3904072.21978034,2156.187190931291,4655003.954206392,2188.941679172342,4793579.461059585,1955.3262122327724,3821325.579267275,-1.1538992042129665,-0.08210592498300176,15.810488807740873,3,0.03,-0.006140825921648071,-0.4164588258649403,-0.004635834973217528
71,4977,0.7100000000000029,0.9669796073029457,0.00018281249546277017,0.5688765106678149,-0.0026598970719093206,-0.2255358114798068,-0.0025038453890810983,0.9742280294910322,-0.009652785091502348,-0.4671797507585245,-0.010570358139204388,2.1550915272418107,0.00804581964213531,0.35172004683020397,0.10491212408468757,-4.735320204219685,-0.12990194530204663,55.7292320728302,0.959710657596588,0.0036450251936912,0.633486807346344,,,,,,,,0.6382706465816839,0.6758071437468811,0.6456722254382816,0.631365327196329,112800.0,120700.0,120700.0,111900.0,55.73152804374695,0.5422818001192234,-0.07506269453924799,0.02052741771931496,0.049709541653813014,-7.8830034906558755,-0.06946281874660981,13.156320705689179,55.7292320728302,0.8380473685816139,2.4737002666500644e-05,0.4998921050749327,0.0,0.0,0.0,1.0,0.0,1.402386978473882e-18,-9.568369488545757e-19,1.317797894736842,0.00025210526315789427,-0.00018052631578947424,0.0,0.0,0.0,55.719401597976685,3.805000066757202,False,True,False,True,True,False,False,1970.4891997674358,3883729.953344458,2083.039122913517,4343888.613789232,2112.4072907914515,4464226.460010331,1949.1435009168529,3800134.6904595676,-1.061300557904775,-0.10950709783494844,15.309054873420981,3,0.03,-0.006120270168031261,-0.46127536979860007,-0.004620317014764788
72,4978,0.7200000000000009,0.9853692319691768,0.00031557126050953696,0.578450469570256,-0.0026970069045353633,-0.24832447523495277,-0.002832298267462025,0.9686690142869061,-0.009991923760255782,-0.5185341476849141,-0.010787998590139491,2.1099241165212312,0.008916043763206571,0.4023397969205382,0.09889123948751426,-5.033511134953871,-0.1276676777938215,55.73965048789978,0.959710657596588,0.0036450251936912,0.633486807346344,,,,,,,,0.5663810750810314,0.7044775425447531,0.6645147202015376,0.5557195906256142,111500.0,114100.0,117200.0,110700.0,55.740570306777954,0.4359989897053531,0.0007361665742455434,0.013510082559026526,-0.056573268760057346,-8.013913692820562,-0.05967888548381105,12.256050756929348,55.73965048789978,0.8790473685816139,2.4737002666500644e-05,0.4998921050749327,0.0,0.0,0.0,1.0,0.0,1.402386978473882e-18,-9.568369488545757e-19,1.139797894736842,0.00025210526315789427,-0.00018052631578947424,0.0,0.0,0.0,55.75990843772888,3.805000066757202,False,True,False,True,True,False,False,1934.6193402650163,3745722.2351167686,2039.1895598711344,4157550.6473604105,2045.138435157029,4177918.925724403,1918.2605209167737,3683500.043999016,-0.89740945417386,-0.12075500520717895,14.613866020200703,3,0.03,-0.003390285450132986,-0.5030297820474805,-0.00731332118171175
73,4979,0.7299999999999989,0.9973043264887831,0.0003594645551098126,0.5900215927893566,-0.0025968225362089205,-0.2728099339769072,-0.0034498824718477597,0.9620582595389748,-0.011344393018202652,-0.5740030802715029,-0.010219519870485045,2.0484097674968407,0.009239212873649583,0.4502079572299445,0.052642571563118745,-5.3556340120618735,-0.1485468724097841,55.74927830696106,0.959710657596588,0.0036450251936912,0.633486807346344,,,,,,,,0.4985067678826869,0.6559766142137315,0.7738409193929889,0.4735848860373454,106800.0,115400.0,118100.0,105600.0,55.75078511238098,0.39212518192294427,0.01391946906803407,-0.020046307033797322,-0.10044707654246623,-8.176557037122098,-0.05327784127497766,11.312998538163171,55.74927830696106,0.8790473685816139,2.4737002666500644e-05,0.4998921050749327,0.0,0.0,0.0,1.0,0.0,1.402386978473882e-18,-9.568369488545757e-19,1.139797894736842,0.00025210526315789427,-0.00018052631578947424,0.0,0.0,0.0,55.75990843772888,3.878999948501587,False,True,False,True,True,False,False,1874.189080867338,3513534.8065320565,2023.0439872852005,4089646.327582482,2029.8748222023953,4115034.0311284643,1860.7198553099186,3464068.6220689737,-0.7953392828276327,-0.028968277272864072,13.963750215475894,3,0.03,-0.0033760459324826513,-0.5494726045633571,-0.0072826045451390205
74,4980,0.7399999999999969,1.002309428359084,0.0002677291954600378,0.6030080492664457,-0.001981132653691861,-0.2993078490407165,-0.004385445051252938,0.9541444620641732,-0.014413849310963104,-0.6339421723598664,-0.0076277751408228124,1.9260688899371514,0.008340571746435661,0.5087256711453182,0.055807135467465616,-5.5008210483271265,-0.24031471334501592,55.75990843772888,0.959710657596588,0.0036450251936912,0.633486807346344,,,,,,,,0.4479057497098268,0.5470668835857346,0.902983989030978,0.3724564621334745,102000.0,116700.0,118100.0,101700.0,55.762643814086914,0.43926156382188297,-0.048894344012962714,-0.032826155571012094,-0.05331069464352755,-8.536697642977094,-0.08090262425613502,10.436640102968774,55.75990843772888,0.8790473685816139,2.4737002666500644e-05,0.4998921050749327,0.0,0.0,0.0,1.0,0.0,1.402386978473882e-18,-9.568369488545757e-19,1.139797894736842,0.00025210526315789427,-0.00018052631578947424,0.0,0.0,0.0,55.75990843772888,3.878999948501587,False,True,False,True,True,False,False,1803.0410922610354,3247940.953699602,1999.3980396416266,3996164.9330296787,2090.35634142135,4375282.520026223,1784.8217228962317,3181629.3218021635,-0.8527681468549853,-0.05759478893779638,13.407638438744414,3,0.03,-0.0033610995608310203,-0.5953806772880939,-0.007250363125353756
75,4981,0.750000000000002,1.001406761042645,2.35909560688116e-05,0.6164911751596641,-0.00043307027684473016,-0.3270115809734387,-0.0055397097674968745,0.9450039946873661,-0.0196164711980784,-0.6963888177273317,-0.0017982979571483696,1.7256490504284576,0.006153208217899279,0.5754774612627768,0.24333723108226313,-5.313776257616301,-0.4017746306318194,55.76895070075989,0.959710657596588,0.0036450251936912,0.633486807346344,,,,,,,,0.40717474934276165,0.5141696683885214,0.9200063287421003,0.247981939361347,100700.0,115400.0,122400.0,98000.0,55.77067232131958,0.5075832837519139,-0.15570131673742346,0.0411134004507506,0.015011025286503357,-9.124696550180765,-0.06411280409431869,9.61581113295598,55.76895070075989,0.913047368581614,2.4737002666500644e-05,0.4998921050749327,0.0,0.0,0.0,1.0,0.0,1.402386978473882e-18,-9.568369488545757e-19,0.9567978947368421,0.00025210526315789427,-0.00018052631578947424,0.0,0.0,0.0,55.79102420806885,3.878999948501587,False,True,False,True,True,False,False,1724.480943843325,2971696.8760817596,1957.2253678550749,3832876.1543083354,2191.3929551301217,4807930.903190422,1691.6436308687664,2856702.3614940294,-0.9982556887518603,-0.09327298186798536,13.239995957961169,3,0.03,-0.0006778627595335064,-0.6540506112863332,-0.0072756426054455875
76,4982,0.76,0.9969831274248279,-0.00035252624495622,0.6294048947611625,0.002300037490019766,-0.3539775970852914,-0.006707963380099301,0.9352270172618833,-0.026818026662346603,-0.7570232823035811,0.007853708719564992,1.4850449837936652,0.0034713477725535164,0.629540908216708,0.6401532064958756,-4.719643213922412,-0.5473319584737508,55.77916550636292,0.9718000888824464,0.0031924396753311,0.6381546854972839,,,,,,,,0.3689408668897419,0.6320186437191139,0.7600652791224127,0.13592494977577896,93500.0,106400.0,132700.0,90400.0,55.78048896789551,0.5042688957090397,-0.2788020602824283,0.19054670004900803,0.011696637243629304,-9.727581235567252,0.0353663785535739,8.720733155056791,55.77916550636292,0.913047368581614,2.4737002666500644e-05,0.4998921050749327,0.0,0.0,0.0,1.0,0.0,1.402386978473882e-18,-9.568369488545757e-19,0.9567978947368421,0.00025210526315789427,-0.00018052631578947424,0.0,0.0,0.0,55.79102420806885,3.878999948501587,False,True,False,True,True,False,False,1635.5685685531193,2677982.3055817536,1938.1221825039759,3766658.04448637,2245.082517560638,5039116.607781245,1576.39229558567,2487185.7976053357,-0.962118365315427,-0.0011021130963397296,13.032798982281953,3,0.03,0.0020280773577022685,-0.7361916138881204,-0.015444157561955914
77,4983,0.769999999999998,0.9920972020258175,-0.0008110410216839195,0.6408248584691079,0.00611804043326728,-0.3777048546926522,-0.007680582803600455,0.9258739768298148,-0.035298152232145365,-0.8103301650975322,0.020794163452738157,1.2729352917076824,0.001249261191794871,0.6501806653286065,1.0534637715164528,-3.720353476161609,-0.5662705221178136,55.79102420806885,0.9827331304550172,0.0031084204092621,0.6429774165153503,,,,,,,,0.35036127407450157,0.7663366078857202,0.5140832248885099,0.10083769113719682,87700.0,110700.0,126800.0,82200.0,55.79167604446411,0.42125539860187566,-0.4119474631763262,0.2973936101968225,-0.07131685986353466,-9.9960354397846,0.04385673113970241,7.677103132367841,55.79102420806885,0.913047368581614,2.4737002666500644e-05,0.4998921050749327,0.0,0.0,0.0,1.0,0.0,1.402386978473882e-18,-9.568369488545757e-19,0.9567978947368421,0.00025210526315789427,-0.00018052631578947424,0.0,0.0,0.0,55.79102420806885,3.858000040054321,False,True,False,True,True,False,False,1544.169368921654,2388480.083430564,1981.9213500316864,3950230.672074158,2184.8365565996814,4788897.326522825,1444.791755432041,2095243.0384138364,-1.1934403051844846,0.1522752829093288,12.576636557214973,3,0.03,0.007472186282704719,-0.7821464376014065,-0.01821435420425595
78,4984,0.7800000000000031,0.9895059775869686,-0.0012919089309657873,0.6502240362325528,0.010513401993575141,-0.39601262009679805,-0.008369525539221786,0.9181467334499639,-0.04399677007985718,-0.8514422816052035,0.03531840927345095,1.1324930026811626,-0.00035246689870634357,0.6349700736296011,1.1773582266421552,-2.4144718462747727,-0.4346495011090159,55.79905271530152,0.9933111071586608,0.0030079798307269,0.6476109027862549,,,,,,,,0.38608153065989126,0.7028146499820928,0.34662854236133533,0.1883382368371262,84500.0,123700.0,114100.0,75800.0,55.79167604446411,0.33050185038978286,-0.5323153692642508,0.2549834876824266,-0.16207040807562761,-9.697391838559401,-0.20552585076257845,6.584663047642831,55.79905271530152,0.913047368581614,2.4737002666500644e-05,0.4998921050749327,0.0,0.0,0.0,1.0,0.0,1.402386978473882e-18,-9.568369488545757e-19,0.9567978947368421,0.00025210526315789427,-0.00018052631578947424,0.0,0.0,0.0,55.79102420806885,3.858000040054321,False,True,False,True,True,False,False,1472.0750511518813,2166609.158446659,2059.2489642260794,4254357.718748055,2034.2687005912057,4162928.086094464,1321.3475967366908,1748063.253219854,-1.4644776484371889,-0.04686572517766616,11.541448826604547,3,0.03,0.021122194711287044,-0.8169616966633614,-0.020989320596189253
79,4985,0.7900000000000011,0.9908614920772001,-0.0017439433181048911,0.657566538398659,0.01471119240241604,-0.40776145318124507,-0.008866424637469245,0.9129269218463034,-0.05189774788205959,-0.877760644698447,0.04904905076228343,1.0534349576774744,-0.0020097395923474753,0.598404950629354,0.8558786143579141,-1.029212331647554,-0.25075031467150666,55.80886936187744,1.0032150745391846,0.0028857816942036,0.6516015529632568,,,,,,,,0.47853744935756265,0.41171779379474993,0.3287302509483911,0.37565267064800667,82900.0,120700.0,106400.0,70900.0,55.80590581893921,0.29371648514225657,-0.5635562708239595,0.10010894455291144,-0.1988557733231539,-8.911148643303209,-0.5673498108633765,5.653373212524166,55.80886936187744,0.9420473685816139,2.4737002666500644e-05,0.4998921050749327,0.0,0.0,0.0,1.0,0.0,1.402386978473882e-18,-9.568369488545757e-19,0.7627978947368421,0.00025210526315789427,-0.00018052631578947424,0.0,0.0,0.0,55.820056438446045,3.858000040054321,False,True,False,True,True,False,False,1439.7318712849965,2069929.082825993,2087.7809895751343,4350661.663111341,1881.2913057652015,3538371.792022387,1240.9234571822276,1531692.054246964,-1.3239497949542063,-0.36598466878703884,10.576190478558598,3,0.03,0.034818059644780804,-0.8403612815712975,-0.018297996714734678
80,4986,0.7999999999999992,0.996409275699293,-0.002136107395048217,0.6632049357834251,0.017949741448773215,-0.4131239171245718,-0.009370678312654385,0.9104496835462863,-0.05829973659788079,-0.8896494707639802,0.05976313127237067,0.9960495441483883,-0.004351183207176216,0.5568669257401091,0.24582479538820912,0.11410525171262653,-0.1413263126955322,55.820056438446045,1.012568712234497,0.00271782069467,0.6556522846221924,,,,,,,,0.558778066057964,0.11170590313504444,0.3869806434347478,0.5664014703794685,83300.0,108700.0,102000.0,72300.0,55.82128930091858,0.3199505560839344,-0.4150575228380297,-0.02661844023606848,-0.17262170238147606,-8.008894334450156,-0.7389703127423873,5.092460171970616,55.820056438446045,0.9420473685816139,2.4737002666500644e-05,0.4998921050749327,0.0,0.0,0.0,1.0,0.0,1.402386978473882e-18,-9.568369488545757e-19,0.7627978947368421,0.00025210526315789427,-0.00018052631578947424,0.0,0.0,0.0,55.820056438446045,3.858000040054321,False,True,False,True,True,False,False,1448.8316219838875,2098295.502814611,2010.5901103546576,4037830.01583412,1784.3130187289707,3165281.643818386,1232.566824558685,1512858.373162339,-1.0362496685535594,-0.4236627186991853,9.458467736441621,3,0.03,0.04031955018215815,-0.8521139657246283,-0.015581982253865265
81,4987,0.8100000000000043,1.0052207658551378,-0.002457875965707439,0.667653260053259,0.0197549193295825,-0.41339607214698654,-0.010019639733842116,0.9102818450981702,-0.06281351214364352,-0.8900646143524784,0.06610219725922073,0.9314484516320167,-0.007290283388027716,0.5175847148737179,-0.2967970907047821,0.7409149503132821,-0.13656225568815542,55.83428621292114,1.021508812904358,0.0025485185906291,0.6592223048210144,,,,,,,,0.5317813077422184,0.061777380838580975,0.4056324987169795,0.6596691061808965,83300.0,108700.0,102000.0,72300.0,55.83056902885437,0.3885233643964059,-0.09327477261714533,-0.03817517887182781,-0.1040488940690045,-7.341796760404749,-0.6337401196887322,4.998440522644076,55.83428621292114,0.9420473685816139,2.4737002666500644e-05,0.4998921050749327,0.0,0.0,0.0,1.0,0.0,1.402386978473882e-18,-9.568369488545757e-19,0.7627978947368421,0.00025210526315789427,-0.00018052631578947424,0.0,0.0,0.0,55.820056438446045,3.900000095367432,False,True,False,True,True,False,False,1475.3212108271562,2177170.143496671,1845.7804495215842,3418335.162496495,1726.612638316286,2974895.4036649456,1303.2588545864946,1706354.5803046688,-0.7528799541789475,-0.2962668998126876,8.774546038101967,3,0.03,0.04304377114335656,-0.8491909196479921,-0.018311714801613654
82,4988,0.8200000000000023,1.0157472575358117,-0.002711638566088721,0.6713567318089424,0.020058866347706008,-0.4105259349267033,-0.010733847113408763,0.9115650734640653,-0.06514119468883352,-0.8834646981972545,0.06778835786547144,0.8568327661588799,-0.01027152453683984,0.4790158246443874,-0.5000258341654575,0.790841013723202,-0.13868036398473832,55.83863711357117,1.0294857025146484,0.0026877438649535,0.6623004078865051,,,,,,,,0.38948144524992834,0.3096622907058472,0.33715942430857365,0.6450511258429548,84500.0,101000.0,95200.0,81300.0,55.84298038482666,0.4616202831972145,0.237144772468666,0.03143208220930457,-0.03095197526819581,-6.916057697377729,-0.40487766507660905,5.195853405265819,55.83863711357117,0.9650473685816139,2.4737002666500644e-05,0.4998921050749327,0.0,0.0,0.0,1.0,0.0,1.402386978473882e-18,-9.568369488545757e-19,0.5717978947368421,0.00025210526315789427,-0.00018052631578947424,0.0,0.0,0.0,55.858949422836304,3.900000095367432,False,True,False,True,True,False,False,1480.4365092668163,2192437.2320958497,1677.6735990782356,2818537.178622257,1661.626095925684,2770811.4953723387,1429.89067086295,2058102.791925731,-0.4122612024310319,-0.14383594952609752,8.654072406485518,3,0.03,0.040290989553185816,-0.8433147319176397,-0.021034696036381063
83,4989,0.8300000000000003,1.0264134386035701,-0.002903398423253939,0.6745564508920443,0.01911086384581756,-0.40658279362726124,-0.011192273057561212,0.9133454657648021,-0.0648613961868113,-0.8745603903363098,0.0653010697366388,0.7830005545894987,-0.012908953971210986,0.4370749890976351,-0.36773132157097543,0.45696999165212016,-0.005736268958327113,55.84966969490051,1.037078619003296,0.0024996232241392,0.6649197340011597,,,,,,,,0.2590017065921958,0.6341682896967429,0.21903853464625786,0.6128991181597863,84700.0,87200.0,87700.0,94300.0,55.850658893585205,0.4859366975730368,0.36432509741471053,0.09249415365975293,-0.006635560892373505,-6.555596813293126,-0.21466555609649687,5.299161650018835,55.84966969490051,0.9650473685816139,2.4737002666500644e-05,0.4998921050749327,0.0,0.0,0.0,1.0,0.0,1.402386978473882e-18,-9.568369488545757e-19,0.5717978947368421,0.00025210526315789427,-0.00018052631578947424,0.0,0.0,0.0,55.858949422836304,3.900000095367432,False,True,False,True,True,False,False,1443.3762436036855,2084430.6334306346,1606.3441454394615,2580267.080113592,1570.6250799287277,2476191.7616808787,1572.4825693137257,2475323.3660278744,-0.1736715017975543,-0.03622301911667655,8.52656474662859,3,0.03,0.03480195657539027,-0.8345128519042664,-0.023749319985283793
84,4990,0.8399999999999983,1.0360411135268761,-0.003037445047909474,0.6772839177572303,0.017260511445112054,-0.40335669274937985,-0.010971734088458597,0.9148142293438748,-0.061439437111472914,-0.8673888286873918,0.05931945173881843,0.7169911292566697,-0.015210397268171093,0.3899115039790777,-0.13233313315921413,0.02221774504557271,0.32059732362369636,55.858949422836304,1.04360830783844,0.0024963757023215,0.6669474840164185,,,,,,,,0.28730124223700315,0.7438057302452448,0.1285787069250792,0.6458559304451772,80600.0,92600.0,82900.0,94600.0,55.86047911643982,0.43851778567257793,0.24374454877919052,0.07130327732385758,-0.0540544727928325,-6.342228346682543,-0.14314604308921897,5.1589141255579785,55.858949422836304,0.9650473685816139,2.4737002666500644e-05,0.4998921050749327,0.0,0.0,0.0,1.0,0.0,1.402386978473882e-18,-9.568369488545757e-19,0.5717978947368421,0.00025210526315789427,-0.00018052631578947424,0.0,0.0,0.0,55.858949422836304,3.900000095367432,False,True,False,True,True,False,False,1392.1376026687503,1936062.803936219,1669.2296364342305,2807562.4068950918,1463.40431288357,2141922.879068108,1701.0715868869763,2886719.0229778965,-0.12733715746268714,0.09736658684613758,8.21155234484901,3,0.03,0.03205681343742721,-0.8286589415686885,-0.023738029298147202
85,4991,0.8499999999999963,1.0440208133047362,-0.0031168495842302532,0.6794551109384573,0.014767710609258475,-0.4021864437078491,-0.009777457768369533,0.9153864651285718,-0.05451201351295357,-0.8649432108536345,0.050347841457784336,0.6564717541293357,-0.017305582489989917,0.33903127970287256,-0.043744070275636385,-0.38414157454592907,0.7408763504539588,55.871360778808594,1.0495784282684326,0.0024769664742052,0.6687232851982117,,,,,,,,0.4656985315985145,0.5627462881494816,0.1369877111746774,0.7135567978745462,76700.0,106400.0,79800.0,102700.0,55.870933294296265,0.3786689906670183,0.0728070112945811,-0.060820427592432835,-0.11390326779839216,-6.508318547185898,-0.2106180780519973,5.0889041313429,55.871360778808594,0.9810473685816139,2.4737002666500644e-05,0.4998921050749327,0.0,0.0,0.0,1.0,0.0,1.402386978473882e-18,-9.568369488545757e-19,0.3967978947368421,0.00025210526315789427,-0.00018052631578947424,0.0,0.0,0.0,55.88885951042175,3.742000102996826,False,True,False,True,True,False,False,1387.1514576253778,1924952.7587328833,1792.330532895917,3231421.3563668737,1354.6237121705226,1829812.9491012432,1803.822353781665,3249571.054159904,-0.30617737810683954,-0.017376290637277553,8.032487193501108,3,0.03,0.032064231556584145,-0.8315799453945694,-0.023743522405883195
86,4992,0.8600000000000014,1.0502610712235874,-0.0031475526691550487,0.6809948106336648,0.011755296315674221,-0.4039835587509959,-0.007629028010996506,0.9146588955446827,-0.044273620888171265,-0.8692581040634538,0.03874277861931524,0.5950004740689806,-0.019152000454948838,0.28775886016222835,-0.18521645291350813,-0.8723898766885858,1.0481706584732238,55.87903928756714,1.054770588874817,0.0024804340209811,0.6699358820915222,,,,,,,,0.61631595319965,0.30362342831195177,0.27285047282125774,0.7081957879852813,82600.0,107900.0,74400.0,107500.0,55.88092303276062,0.3988595419282116,0.09362375525874937,-0.25446522386040027,-0.09371271653719881,-6.895134273284251,-0.3537796305898174,5.38543825294933,55.87903928756714,0.9810473685816139,2.4737002666500644e-05,0.4998921050749327,0.0,0.0,0.0,1.0,0.0,1.402386978473882e-18,-9.568369488545757e-19,0.3967978947368421,0.00025210526315789427,-0.00018052631578947424,0.0,0.0,0.0,55.88885951042175,3.742000102996826,False,True,False,True,True,False,False,1456.3044903120015,2132897.8697928432,1847.9468227162806,3416362.810150545,1270.1269258279035,1602678.8359731066,1869.9250950847197,3499440.120757185,-0.3729288659401684,-0.2143057430469887,8.901458459463015,3,0.03,0.026617465909458564,-0.8374059625103892,-0.018293100345658637
87,4993,0.8699999999999994,1.0550076819439438,-0.003142318673855642,0.6819225561836365,0.00830245494836159,-0.4093087173332511,-0.004886510941853866,0.9123450910525327,-0.03167228775940657,-0.8816072839928967,0.025016820464551028,0.5287916189788494,-0.020538677089360656,0.23854226284309457,-0.44562260314366775,-1.616415590521058,1.0808692161115716,55.88885951042175,1.0591351985931396,0.0024455543607473,0.6707395911216736,,,,,,,,0.5824548527407587,0.2311263689206812,0.49375609807448667,0.5794209734459318,90900.0,101000.0,70300.0,109100.0,55.8945095539093,0.49778300421311006,0.31784284446642164,-0.3793184677346462,0.0052107457476997104,-7.0408458136401455,-0.43803172564142623,5.833480974522137,55.88885951042175,0.9810473685816139,2.4737002666500644e-05,0.4998921050749327,0.0,0.0,0.0,1.0,0.0,1.402386978473882e-18,-9.568369488545757e-19,0.3967978947368421,0.00025210526315789427,-0.00018052631578947424,0.0,0.0,0.0,55.88885951042175,3.742000102996826,False,True,False,True,True,False,False,1553.739998428233,2423049.7744778367,1780.400604281741,3178553.3876560843,1258.435960463137,1577697.5943020224,1883.4239151057352,3554517.6284647463,0.11398879705496334,-0.2174592065941912,9.199998018679864,3,0.03,0.018438696758913645,-0.8461711457158488,-0.007376402853154609
88,4994,0.8799999999999975,1.0586346043358041,-0.0031218886905709344,0.6823657900327231,0.004577085674689909,-0.41834806957095083,-0.002095607092459649,0.9082728397369919,-0.018220082129482236,-0.9024640895004005,0.010094729414646174,0.45849384119727365,-0.021316870466700805,0.19110955648403116,-0.6324089525932941,-2.5856647322725963,0.8495031161671297,55.8993136882782,1.062647819519043,0.0022603131365031,0.6710776686668396,,,,,,,,0.39586307122200814,0.39409909442519075,0.6996412349399482,0.3947490270778432,93500.0,92900.0,75000.0,106400.0,55.8945095539093,0.5551694154545994,0.49828085851640685,-0.32767738920225264,0.06259715698918902,-6.89224621923664,-0.36790239235235705,5.986204608946824,55.8993136882782,0.9810473685816139,2.4737002666500644e-05,0.4998921050749327,0.0,0.0,0.0,1.0,0.0,1.402386978473882e-18,-9.568369488545757e-19,0.3967978947368421,0.00025210526315789427,-0.00018052631578947424,0.0,0.0,0.0,55.88885951042175,3.742000102996826,False,True,False,True,True,False,False,1600.877237113068,2560516.7385772076,1658.1255435846033,2754035.112483482,1356.2341153011203,1859206.0826339172,1842.4725907847233,3400661.0988578014,0.39265641159741094,-0.2677336763292525,9.067533155003662,3,0.03,0.010253969026922922,-0.8608489640892285,-0.0019141064323596536
89,4995,0.8900000000000026,1.0614805388568513,-0.0031124453600367683,0.6825084424880764,0.0008935705465047939,-0.43075216607100186,0.0002577356823997926,0.9024697815046975,-0.005493079792360036,-0.9311308050449003,-0.004717636635891709,0.3863588762294665,-0.021608017017654427,0.14319355252149468,-0.6165800371327418,-3.4634279005385977,0.5195861162818151,55.90930342674256,1.0651201009750366,0.002244678325951,0.6707075834274292,,,,,,,,0.22276819488917624,0.627508468597877,0.8036507963438062,0.25870727337204713,88200.0,90900.0,90100.0,99000.0,55.91157793998718,0.47965126968288496,0.39496968469098703,-0.1389533067802185,-0.012920988782525513,-6.919511382450948,-0.1769705280096222,5.718096796205726,55.90930342674256,0.9910473685816139,2.4737002666500644e-05,0.4998921050749327,0.0,0.0,0.0,1.0,0.0,1.402386978473882e-18,-9.568369488545757e-19,0.2387978947368421,0.00025210526315789427,-0.00018052631578947424,0.0,0.0,0.0,55.92288994789124,3.8320000171661377,False,True,False,True,True,False,False,1563.6502577350443,2444501.0845716973,1596.256764533473,2536895.458596766,1537.769740782328,2394803.848559593,1767.3091234253257,3120904.894090095,0.3873164443389552,-0.10381085289335593,8.910614237798995,3,0.03,0.002051468314606068,-0.884467600679769,0.0035638985188960618
90,4996,0.9000000000000006,1.063763477832891,-0.0031398828952736175,0.6825100692896393,-0.002350939982892813,-0.44545841492548083,0.0019389909066479818,0.8952974444102579,0.0053814091073272185,-0.9652907059567681,-0.01804557845080632,0.31310049818889035,-0.021770107769816544,0.09308368575823237,-0.4098900867932642,-3.8346888213031227,0.27273911714826854,55.92288994789124,1.0669599771499634,0.0020435010083019,0.6700844168663025,,,,,,,,0.1789164016551199,0.7620173619036192,0.7970461555769734,0.20871524941613356,82000.0,98000.0,102000.0,94600.0,55.920830965042114,0.3391938101155281,0.028725241880922736,0.03139098386081367,-0.15337844834988232,-7.41625532698782,0.003307998727938355,5.231964322146675,55.92288994789124,0.9910473685816139,2.4737002666500644e-05,0.4998921050749327,0.0,0.0,0.0,1.0,0.0,1.402386978473882e-18,-9.568369488545757e-19,0.2387978947368421,0.00025210526315789427,-0.00018052631578947424,0.0,0.0,0.0,55.92288994789124,3.8320000171661377,False,True,False,True,True,False,False,1473.9271903865344,2175096.9223646726,1648.020006981067,2714627.240602117,1724.0065489632675,2974379.8208198603,1676.431000781748,2803099.946285054,0.02867632172573309,0.02837484782707534,9.12548188166976,3,0.03,-0.00619018257567524,-0.9201827360083848,0.0035748718745184024
91,4997,0.9099999999999986,1.0655688009461572,-0.0032224162881273936,0.6824354329793451,-0.004823294473273926,-0.46068412105617856,0.0030023099968666343,0.8875459777227336,0.013962898185168144,-1.0009033713575834,-0.028847406213426022,0.23757386947214215,-0.02210441252918761,0.04112338909855247,-0.1384951927775497,-3.4543406309693103,0.1803118463708676,55.930625200271606,1.0682202577590942,0.0018535784911364,0.6690101027488708,,,,,,,,0.24049304683023143,0.7628185129766216,0.7359580886864127,0.20959103424721892,82000.0,98000.0,102000.0,94600.0,55.93105363845825,0.2818559722947781,-0.35880615212566064,0.07753951529393605,-0.21071628617063226,-8.112958202065194,0.06536732072166417,4.724464162070095,55.930625200271606,0.9910473685816139,2.4737002666500644e-05,0.4998921050749327,0.0,0.0,0.0,1.0,0.0,1.402386978473882e-18,-9.568369488545757e-19,0.2387978947368421,0.00025210526315789427,-0.00018052631578947424,0.0,0.0,0.0,55.92288994789124,3.8320000171661377,False,True,False,True,True,False,False,1382.9958865557387,1911641.434911615,1774.858899679949,3162648.2537667197,1849.1374119366255,3399934.645215778,1568.6796676108702,2462423.088679823,-0.3801076247759969,0.037207468231335146,9.429079628150085,3,0.03,-0.01172999016560627,-0.9592902522381799,0.0035874609893334283
92,4998,0.9199999999999966,1.0668850491977704,-0.0033639866711367215,0.682224487982174,-0.0063949328023380795,-0.47418780452234816,0.0036788226856529676,0.8803928084329042,0.02038594799364028,-1.032713152580221,-0.03669044989022079,0.15875590027729017,-0.022593179333097506,-0.01152931201487749,0.054860644094149015,-2.3637785120892127,0.19043721845520992,55.93995833396912,1.0688124895095823,0.0016726879402995,0.6675110459327698,,,,,,,,0.31521854282127965,0.6910753933229783,0.6750161519894065,0.2209097728032069,75000.0,110700.0,109900.0,80000.0,55.93105363845825,0.3519079132422818,-0.5586643746725135,0.03237419677806199,-0.14066434522312862,-8.565627499134875,0.014019199886814587,4.275811145476259,55.93995833396912,0.9970473685816139,2.4737002666500644e-05,0.4998921050749327,0.0,0.0,0.0,1.0,0.0,1.402386978473882e-18,-9.568369488545757e-19,0.11279789473684211,0.00025210526315789427,-0.00018052631578947424,0.0,0.0,0.0,55.959434032440186,3.8320000171661377,False,True,False,True,True,False,False,1316.0143120063813,1729879.0876692522,1897.7287302051457,3607900.8723400217,1904.368219606185,3618488.307570729,1442.0257273863485,2092441.399912596,-0.7117507113316246,-0.017681124152921057,9.485649005675238,3,0.03,-0.014530224630845082,-0.9896885987792073,0.006364525085486214
