,Unnamed: 0,t,x,y,z,qx,qy,qz,qw,yaw,pitch,roll,vx,vy,vz,wx,wy,wz,ros_timestamp,x_poses,y_poses,z_poses,qx_poses,qy_poses,qz_poses,qw_poses,yaw_poses,pitch_poses,roll_poses,m1_thrust,m2_thrust,m3_thrust,m4_thrust,m1_erpm,m2_erpm,m3_erpm,m4_erpm,ros_timestamp_motors,thrust,torque_roll,torque_pitch,torque_yaw,ax,ay,az,ros_timestamp_image_accel,x_r,y_r,z_r,qx_r,qy_r,qz_r,qw_r,yaw_r,pitch_r,roll_r,vx_r,vy_r,vz_r,wx_r,wy_r,wz_r,ros_timestamp_r,Vbat,can_be_armed,is_armed,auto_arm,can_fly,is_flying,is_tumbled,is_locked,m1_rads,m1_rads2,m2_rads,m2_rads2,m3_rads,m3_rads2,m4_rads,m4_rads2,rx,ry,rz
0,245,3.978268737828285e-17,0.03454683953200573,0.021442276775854103,0.5732277212090996,-0.0018280840513724733,0.0006868429570457782,0.001370671283002086,0.9999971538037933,-9.008464836434636e-05,0.0012677485249035997,-0.008092523262246848,0.0070636055538654185,0.00844393843818407,0.04751928500262879,-0.01900115641544229,-0.010793585532823294,-0.022456541990694842,7.759365081787109,0.0400683432817459,0.0270168371498584,0.540071427822113,,,,,,,,0.6678318590220879,0.6527357419859392,0.6740378233962689,0.658243730595212,100000.0,96200.0,99700.0,97100.0,7.756582260131836,0.9639580844247708,-0.013042105752806503,0.005565797909895337,0.47116053854765194,-0.020943449329883203,-0.02403042280127226,9.66521661636824,7.756582260131836,0.0002626317395086062,0.00012473700266650093,0.49982684191703797,0.0,0.0,4.3183360506867073e-07,0.9999999999999067,1.456601105263158e-06,1.402386978473882e-18,-9.568369488545757e-19,-2.1578947368420795e-05,3.8947368421051965e-05,2.736842105263137e-05,0.0,0.0,0.0,7.759435415267944,3.556999921798706,False,True,False,True,True,False,False,1745.3309113970035,3046179.732850961,1679.0042445413287,2819054.8301379145,1740.0913515032755,3027918.1206882494,1694.6986949144655,2871999.8756070286,-0.0036572986951310085,0.0012342124924585275,0.0027438327907575904
1,246,0.009999999999999827,0.03461383679561112,0.02143803587699109,0.5730960937556842,-0.0020313710454647103,0.0013567639890851016,0.0013865334266934825,0.9999960551163241,-5.3407360076732766e-05,0.00260783661473208,-0.008496169633000062,0.00686362658541392,0.008454560426622555,0.03619259460389466,-0.016751131107839753,0.007459341780131718,-0.027309012534256043,7.759365081787109,0.0400683432817459,0.0270168371498584,0.540071427822113,,,,,,,,0.6525531386547347,0.6596815168265193,0.6831986797890259,0.6540582647263073,100000.0,96200.0,99700.0,97100.0,7.756582260131836,0.7522190307999594,0.06789510157523271,0.01112253093992838,0.2594214849228406,-0.019186625073967397,-0.04188018127663868,9.614387758807029,7.756582260131836,0.0002626317395086062,0.00012473700266650093,0.49982684191703797,0.0,0.0,4.3183360506867073e-07,0.9999999999999067,1.456601105263158e-06,1.402386978473882e-18,-9.568369488545757e-19,-2.1578947368420795e-05,3.8947368421051965e-05,2.736842105263137e-05,0.0,0.0,0.0,7.759435415267944,3.556999921798706,False,True,False,True,True,False,False,1738.999666899117,3023129.1638632314,1685.0565985356134,2837161.9253126867,1744.4060828885426,3041778.997622703,1680.1673537997026,2821643.7275171746,-0.0036572986951310085,0.0012342124924585275,0.0027438327907575904
2,247,0.020000000000000056,0.03464835801766999,0.02144299462864086,0.5730963084781489,-0.0021783120956322026,0.0017536207064625655,0.0013878527285378704,0.9999951268059438,-4.678709593824825e-05,0.0034012249640352574,-0.008787823621823171,0.006949766302182929,0.008459845813696142,0.029167107562886728,0.0019946814042896286,0.005571584289399268,-0.026480644432689014,7.779446840286255,0.0400715693831443,0.0269350577145814,0.5400275588035583,,,,,,,,0.6451664813092461,0.6319475789961468,0.6571499132447466,0.6371015119474588,100000.0,96200.0,100300.0,96200.0,7.776449918746948,0.5625734391855319,0.020468085728613018,0.013629980209214163,0.06977589330841313,-0.026348897511432785,-0.043570804323497955,9.66203197674509,7.776449918746948,0.0002626317395086062,0.00012473700266650093,0.49982684191703797,0.0,0.0,4.318336050686708e-07,0.9999999999999067,1.456601105263158e-06,1.402386978473882e-18,-9.568369488545757e-19,-2.1578947368420795e-05,3.8947368421051965e-05,2.736842105263137e-05,0.0,0.0,0.0,7.778321027755737,3.546999931335449,False,True,False,True,True,False,False,1758.3641650549762,3092297.332000598,1664.7204070355108,2771855.223217899,1738.6892826199787,3023373.034332119,1703.252650817082,2902007.2045868705,-0.0036572986951310085,0.0012342124924585275,0.0027438327907575904
3,248,0.029999999999999843,0.03462430458074341,0.021460894017207462,0.573284364384218,-0.002187213326038799,0.0016391099198023076,0.0013674020522756382,0.9999953298031771,-8.627970801712422e-05,0.003171439248527484,-0.008804988396798278,0.007421398772076668,0.00844894770100772,0.02778002720709736,0.04468839944154679,-0.052671362147572266,-0.02080000240658811,7.801778316497803,0.040008470416069,0.026924317702651,0.5400460362434387,,,,,,,,0.6613401281722993,0.5870429950448257,0.6114666479546909,0.6281621147337766,103100.0,92900.0,98000.0,101000.0,7.796568393707275,0.46357873866648847,-0.14855012477988655,0.012314510157629093,-0.029218807210630277,-0.0009984772606333571,-0.042193840334094776,9.724937054952795,7.796568393707275,0.0002626317395086062,0.00012473700266650093,0.49982684191703797,0.0,0.0,4.318336050686708e-07,0.9999999999999067,1.456601105263158e-06,1.402386978473882e-18,-9.568369488545757e-19,0.03397842105263158,3.8947368421051965e-05,2.736842105263137e-05,0.0,0.0,0.0,7.797187566757202,3.546999931335449,False,True,False,True,True,False,False,1785.5353021128494,3190097.477578246,1637.838920469073,2687186.777855524,1726.919272886396,2984958.6917851404,1741.9718376893907,3037479.594809873,-0.0036572986951310085,0.0012342124924585275,0.0027438327907575904
4,249,0.04000000000000008,0.034527760583396266,0.021487758225478958,0.5736180530354817,-0.001953959168086504,0.0008142676742962834,0.0013319125522362528,0.9999968725054481,-0.0001613703615017592,0.0015202025337554496,-0.00834106453093587,0.00801760388204181,0.008420636366020237,0.030035215166307114,0.10782990885015017,-0.19135842096375705,-0.0163095183379424,7.809323310852051,0.0400026589632034,0.0268567632883787,0.5400760173797607,,,,,,,,0.5964934041197234,0.6802865250463621,0.6930881792314924,0.5534597939539397,103100.0,92900.0,98000.0,101000.0,7.80790901184082,0.5273080008346747,-0.29423283981809867,0.009842044677411883,0.034510454957556,0.07823368951842657,-0.05774094105550848,9.681283774153469,7.80790901184082,0.0002626317395086062,0.00012473700266650093,0.49982684191703797,0.0,0.0,4.3183360506867073e-07,0.9999999999999067,1.456601105263158e-06,1.402386978473882e-18,-9.568369488545757e-19,0.03397842105263158,3.8947368421051965e-05,2.736842105263137e-05,0.0,0.0,0.0,7.806983470916748,3.546999931335449,False,True,False,True,True,False,False,1800.3912500107617,3240448.0748624345,1622.1757529618476,2628724.71486756,1705.1939922894712,2905597.52584677,1762.578263212636,3105933.489018434,-0.0036572986951310085,0.0012342124924585275,0.0027438327907575904
5,250,0.049999999999999864,0.0343615159944174,0.02151101682074281,0.5739839554489901,-0.0013946601896059909,-0.0007198233504859578,0.001303832681827968,0.9999979183966522,-0.0002297721286413395,-0.0015510981528323808,-0.007229485917877537,0.00819723458330307,0.008402544048500065,0.03296721521738342,0.17984868946481458,-0.35797792608457235,-0.016005099717927643,7.820663928985596,0.0399152562022209,0.026895647868514,0.5402688980102539,,,,,,,,0.44240214278651957,0.8947772097536202,0.8823323734146151,0.4035132505916982,101000.0,96500.0,99300.0,98400.0,7.816990852355957,0.7231872831140896,-0.27662069843908754,0.010117668810358459,0.23038973723697093,0.09688476004356074,-0.07929355535144833,9.643552372099101,7.816990852355957,0.0022626317395086065,0.00012473700266650093,0.49982684191703797,0.0,0.0,4.3183360506867073e-07,0.9999999999999067,1.456601105263158e-06,1.402386978473882e-18,-9.568369488545757e-19,0.11797842105263158,3.8947368421051965e-05,2.736842105263137e-05,0.0,0.0,0.0,7.8370490074157715,3.489000082015991,False,True,False,True,True,False,False,1786.272350554349,3187978.2347018295,1647.0420124909174,2705954.489735167,1707.881541614739,2912309.4983892236,1746.7030350390248,3047180.3455239525,-0.0036572986951310085,0.0012342124924585275,0.0027438327907575904
6,251,0.05999999999999965,0.034146905554586666,0.02151171992886707,0.5742570697767506,-0.0005042573664579625,-0.002576020430298398,0.0013164003634299245,0.9999956884573724,-0.0002244018609164887,-0.005268026914084729,-0.0054593702586078,0.007531571785109409,0.008437556291816743,0.03497561903625434,0.2413940974479514,-0.39317687619804986,-0.014585607585365772,7.820663928985596,0.0399152562022209,0.026895647868514,0.5402688980102539,,,,,,,,0.4469797483960275,0.8953178790060982,0.8708564718210925,0.39888654319409406,101000.0,96500.0,99300.0,98400.0,7.816990852355957,0.8944453132259665,-0.10186679037682655,0.013970852768697542,0.40164776734884783,-0.09640088539156402,-0.09059803820338674,9.833794169309359,7.816990852355957,0.0022626317395086065,0.00012473700266650093,0.49982684191703797,0.0,0.0,4.318336050686708e-07,0.9999999999999067,1.456601105263158e-06,1.402386978473882e-18,-9.568369488545757e-19,0.11797842105263158,3.8947368421051965e-05,2.736842105263137e-05,0.0,0.0,0.0,7.8370490074157715,3.489000082015991,False,True,False,True,True,False,False,1719.8257997014027,2962111.2502997583,1753.9350464986187,3088211.4863682743,1788.5213375795777,3207191.693038238,1671.8466850311793,2799601.697775283,-0.0036572986951310085,0.0012342124924585275,0.0027438327907575904
7,252,0.06999999999999988,0.03392095607799597,0.02146994293475979,0.5743555036468547,0.0006130183413612892,-0.003911777833761589,0.0014012414986339036,0.9999911793235753,-7.453510676304416e-05,-0.007945431874130469,-0.003235693467669132,0.006161602290321264,0.008523480590305728,0.035897476744083674,0.26646085038051004,-0.10778045344185191,-0.004259052657062733,7.839530467987059,0.0399131327867507,0.0268434137105941,0.5402733087539673,,,,,,,,0.6466890096484195,0.6258305498295592,0.6368661011918137,0.5999493490633183,91700.0,111500.0,111100.0,88200.0,7.836571455001831,0.8975024573297574,0.09289083981040368,0.017998798077687953,0.40470491145263854,-0.4122756986138419,-0.11648764988060481,10.168403613681598,7.836571455001831,0.0022626317395086065,0.00012473700266650093,0.49982684191703797,0.0,0.0,4.318336050686708e-07,0.9999999999999067,1.456601105263158e-06,1.402386978473882e-18,-9.568369488545757e-19,0.11797842105263158,3.8947368421051965e-05,2.736842105263137e-05,0.0,0.0,0.0,7.8370490074157715,3.489000082015991,False,True,False,True,True,False,False,1640.785979461199,2696510.686639334,1876.5867960511791,3532642.015630694,1882.6687875099374,3551147.726369046,1574.7062415521095,2484638.2969285934,0.0018757487113670202,-0.0070660506879357005,0.002744279564738453
8,253,0.07999999999999967,0.03372859528707731,0.02137227337695023,0.5742643779166435,0.0017728419137471281,-0.0035873022588825227,0.001574267442697227,0.9999907549453001,0.0002654984212908742,-0.007303978854451454,-0.0009187404965949867,0.004881815370048086,0.008559430732858675,0.03591509251035491,0.23725460246763633,0.5576223291780007,0.014328101196038877,7.8493263721466064,0.039950206875801,0.0267960093915462,0.5403098464012146,,,,,,,,0.7433903044950276,0.46829452778925384,0.5381939165555443,0.7350265301939674,94300.0,106800.0,106800.0,89300.0,7.847006559371948,0.7548330571360767,0.17565362393562522,0.01845803298126648,0.2620355112589578,-0.532920895676066,-0.17887611256036523,10.304107103364627,7.847006559371948,0.0022626317395086065,0.00012473700266650093,0.49982684191703797,0.0,0.0,4.3183360506867073e-07,0.9999999999999067,1.456601105263158e-06,1.402386978473882e-18,-9.568369488545757e-19,0.11797842105263158,3.8947368421051965e-05,2.736842105263137e-05,0.0,0.0,0.0,7.8370490074157715,3.489000082015991,False,True,False,True,True,False,False,1628.56593885287,2652194.6218632367,1898.1484200928244,3602214.6030256283,1886.7721919691076,3560329.6335487515,1549.5648608444403,2400734.7205146886,0.0046429058055278884,-0.009833583741029113,0.0027444781001522444
9,254,0.0899999999999999,0.03361260022695913,0.02121886957885033,0.5740260414891916,0.002792859036373422,-0.0005280056874854906,0.0018268484292268022,0.9999942918703154,0.0007962259583416193,-0.0011935185964796968,0.001138260068986919,0.004680560865158584,0.00838352103750175,0.03538326637779979,0.16683975444114668,1.4353456504415407,0.03045227247222592,7.859761476516724,0.0401820540428161,0.0266229715198278,0.5401391983032227,,,,,,,,0.6953409794488918,0.5279173227992496,0.6089770355515596,0.7064935522437927,96500.0,104900.0,104500.0,92300.0,7.856750965118408,0.6111247031474458,0.11960166466425431,0.015505049307852379,0.11832715727032704,-0.2915696534899803,-0.23248921811039386,10.141227472493078,7.856750965118408,0.008262631739508607,0.00012473700266650093,0.49982684191703797,0.0,0.0,4.3183360506867073e-07,0.9999999999999067,1.456601105263158e-06,1.402386978473882e-18,-9.568369488545757e-19,0.24597842105263157,3.8947368421051965e-05,2.736842105263137e-05,0.0,0.0,0.0,7.876827239990234,3.5360000133514404,False,True,False,True,True,False,False,1679.5185457151251,2819444.9388235696,1836.155415726159,3368442.8724870663,1840.2577086013248,3385178.2372965813,1603.5233428224205,2570614.394039059,0.007409859343725201,-0.007066496728394225,0.0027444527958359125
10,255,0.10000000000000013,0.03360566680479644,0.021026704346519688,0.5737100416607236,0.003575658054645312,0.005880884419782148,0.002130863698205615,0.9999740443070596,0.0014775212508071926,0.011617042372209235,0.002751487151083784,0.006116932835763847,0.007899489255244628,0.035187887299292626,0.09931327807389093,2.2186153521494987,0.03431098961367846,7.869505882263184,0.0408348217606544,0.0264085941016674,0.5400262475013733,,,,,,,,0.6996207489984261,0.5752024689176489,0.6107203515606626,0.6761923324479109,99300.0,102000.0,105300.0,95500.0,7.8666369915008545,0.5518325775996247,-0.002448108372789408,0.012750476744953373,0.05903503172250601,0.15365264733481643,-0.2262890201949709,9.923751601093391,7.8666369915008545,0.008262631739508607,0.00012473700266650093,0.49982684191703797,0.0,0.0,4.318336050686708e-07,0.9999999999999067,1.456601105263158e-06,1.402386978473882e-18,-9.568369488545757e-19,0.24597842105263157,3.8947368421051965e-05,2.736842105263137e-05,0.0,0.0,0.0,7.876827239990234,3.5360000133514404,False,True,False,True,True,False,False,1739.527964546754,3025035.7143753073,1764.2167024820656,3111986.68765271,1810.2705111125047,3276958.223571765,1667.2263310192002,2778216.599819319,0.007410101395992268,0.009535790974667986,0.005511628714763806
11,256,0.10999999999999992,0.03372785804936958,0.02082628409550008,0.5733812535385361,0.004136231735595163,0.015579145160481964,0.0024545126048283227,0.9998670697602611,0.002256408965687278,0.031011702514156414,0.003961172975127959,0.009165910341888833,0.007158023181711896,0.036009394542531735,0.0756105373015406,2.676646541166589,0.027186100971185713,7.87939190864563,0.0412033423781394,0.0262677315622568,0.5395616888999939,,,,,,,,0.6908789710753036,0.6125287592308432,0.618425362982486,0.6457237061902836,101400.0,98000.0,101700.0,97100.0,7.8767781257629395,0.5422337354867832,-0.08801658805721299,0.012937870623983926,0.049436189609664484,0.5669743967293124,-0.19225301109199183,9.836794338754418,7.8767781257629395,0.008262631739508607,0.00012473700266650093,0.49982684191703797,0.0,0.0,4.318336050686708e-07,0.9999999999999067,1.456601105263158e-06,1.402386978473882e-18,-9.568369488545757e-19,0.24597842105263157,3.8947368421051965e-05,2.736842105263137e-05,0.0,0.0,0.0,7.876827239990234,3.5360000133514404,False,True,False,True,True,False,False,1778.7044671991673,3164624.726062665,1707.7622125999196,2917157.1214932064,1783.5749018334104,3182315.9592523603,1711.1814804796406,2928729.2650141427,0.007410205013904018,0.03167292586759276,0.005511705785700794
12,257,0.1199999999999997,0.03398957771407853,0.02065188445700526,0.5730813426701965,0.004564534575713114,0.0279080963499574,0.002778252107642771,0.9995962107258385,0.0030940992403880995,0.05568669943944792,0.004951424118694476,0.013731304577804495,0.006286459662913179,0.03706795865927292,0.09794139626196052,2.8047861996643517,0.018519644020010412,7.889533042907715,0.0418046489357948,0.0261594336479902,0.5395005941390991,,,,,,,,0.6022631776652354,0.699131193651135,0.7237146791407132,0.5807343392475354,102400.0,97100.0,101400.0,99300.0,7.886890411376953,0.5256560307162167,-0.08595113059818654,0.014959508857021325,0.03285848483909781,0.8656796733951256,-0.18809354456491745,9.856257419045807,7.886890411376953,0.019262631739508606,0.00012473700266650093,0.49982684191703797,0.0,0.0,4.3183360506867073e-07,0.9999999999999067,1.456601105263158e-06,1.402386978473882e-18,-9.568369488545757e-19,0.4059784210526316,3.8947368421051965e-05,2.736842105263137e-05,0.0,0.0,0.0,7.911762237548828,3.5360000133514404,False,True,False,True,True,False,False,1768.2835869023302,3127541.243207179,1715.5948501282842,2945024.6786952075,1782.2574089165764,3177169.011426702,1714.368444161023,2940249.6360182017,0.007408852613139027,0.05933334765201194,0.005510699870870232
13,258,0.12999999999999992,0.03439729953574736,0.02052899345693143,0.5728291742777986,0.004953715221212789,0.04192342809133487,0.0030945146383730437,0.9991037538022419,0.003966713767454027,0.08377575011100867,0.005905943201672892,0.0202623399626063,0.005356837296940947,0.03658808612774796,0.13178363936169188,2.786156172982774,0.014660959931270496,7.899645328521728,0.0420427098870277,0.0259134173393249,0.5392078757286072,,,,,,,,0.6300622667009823,0.6918175738178716,0.7337724444748088,0.616817257467331,99000.0,103100.0,105300.0,96200.0,7.896588087081909,0.47636882282269244,-0.029970795632201654,0.015606555478451752,-0.01642872305442645,1.103427437021891,-0.2047226696882819,9.955801885177113,7.896588087081909,0.019262631739508606,0.00012473700266650093,0.49982684191703797,0.0,0.0,4.3183360506867073e-07,0.9999999999999067,1.456601105263158e-06,1.402386978473882e-18,-9.568369488545757e-19,0.4059784210526316,3.8947368421051965e-05,2.736842105263137e-05,0.0,0.0,0.0,7.911762237548828,3.509999990463257,False,True,False,True,True,False,False,1734.8316669602468,3008459.373808477,1785.9650493176587,3191646.562638458,1826.420732566223,3336776.6001517815,1678.6459930509948,2816901.707384737,0.010172108333761953,0.08697077459914344,0.005508877665266253
14,259,0.1399999999999997,0.03495840289519098,0.02046459713789863,0.5726329895307883,0.0053481883507490065,0.056758917448415054,0.003393963251415319,0.9983678195859965,0.004843083162081591,0.11357685529718527,0.0069056723652453226,0.029722190869803388,0.0043567103572807134,0.03407404240677961,0.14106127842566651,2.8186504084058432,0.013379380509081856,7.909343004226685,0.0426446571946144,0.0263298116624355,0.5393431782722473,,,,,,,,0.7598833857179389,0.6287866113121033,0.6582331334494582,0.7258404498727788,100000.0,104500.0,106400.0,95500.0,7.906415224075317,0.3753279549185517,0.015483833078409764,0.01370810405950183,-0.11746959095856722,1.3654697958207511,-0.21252014864074228,10.148207126661314,7.906415224075317,0.019262631739508606,0.00012473700266650093,0.49982684191703797,0.0,0.0,4.318336050686708e-07,0.9999999999999067,1.456601105263158e-06,1.402386978473882e-18,-9.568369488545757e-19,0.4059784210526316,3.8947368421051965e-05,2.736842105263137e-05,0.0,0.0,0.0,7.911762237548828,3.509999990463257,False,True,False,True,True,False,False,1762.4487720627571,3109194.9853744674,1812.5583619008084,3284804.401077994,1850.6965582015514,3424510.039167896,1687.5248793782125,2849426.2140336465,0.010167442793528709,0.11457525334992259,0.00550635096288126
15,260,0.14999999999999994,0.035683264517324,0.02044461314563332,0.5725002860839977,0.005740607894005957,0.07186374019060994,0.0036555117757133306,0.9973912399357041,0.00567254111703728,0.14402376264056468,0.00792716868245923,0.04291575214121173,0.003251709280590212,0.03160459484652077,0.11813528739004292,2.9668790959760902,0.009412371150549992,7.919170141220093,0.0434741079807281,0.0264557655900716,0.5393502712249756,,,,,,,,0.7619024015740286,0.6770200767000889,0.69465415143577,0.729126665316097,106400.0,100700.0,104500.0,102000.0,7.916743516921997,0.25571530368729756,0.030196319434669265,0.011405790035140534,-0.2370822421898212,1.687549988668487,-0.22836871531705266,10.368990658744027,7.916743516921997,0.019262631739508606,0.00012473700266650093,0.49982684191703797,0.0,0.0,4.318336050686708e-07,0.9999999999999067,1.456601105263158e-06,1.402386978473882e-18,-9.568369488545757e-19,0.4059784210526316,3.8947368421051965e-05,2.736842105263137e-05,0.0,0.0,0.0,7.911762237548828,3.509999990463257,False,True,False,True,True,False,False,1829.425147074547,3348926.1292830976,1781.8795528876892,3176091.5531739714,1840.643097450801,3388136.4246387556,1760.5725217681231,3102987.521143813,0.012924175799315827,0.14213491365351708,0.008265861369222957
16,261,0.15999999999999973,0.036585785390914415,0.020439335037704617,0.572437499352541,0.0061061868870444,0.08703894639389537,0.0038548723639409157,0.9961787371006264,0.0064086709305017165,0.17475561579579577,0.008917892744295945,0.05999829116012703,0.0019958741620452313,0.032286030107402254,0.08285938547554134,3.1548854886630453,0.0023072774176480394,7.929498434066772,0.045049212872982,0.0261166710406541,0.5393208861351013,,,,,,,,0.7052871782786283,0.7246592557225251,0.7472030653856355,0.6898024871607884,104900.0,103100.0,106800.0,103100.0,7.926645040512085,0.24758872663620207,0.03432740681682699,0.011160366553254603,-0.2452088192409166,2.068915349661403,-0.2599190404954516,10.539849186297403,7.926645040512085,0.03526263173950861,0.00012473700266650093,0.49982684191703797,0.0,0.0,4.3183360506867073e-07,0.9999999999999067,1.456601105263158e-06,1.402386978473882e-18,-9.568369488545757e-19,0.5809784210526315,3.8947368421051965e-05,2.736842105263137e-05,0.0,0.0,0.0,7.93703031539917,3.509999990463257,False,True,False,True,True,False,False,1845.6692124752844,3404887.2531013894,1786.8513683424098,3193935.1314425757,1855.8009355169947,3445168.3239543303,1800.0236762354132,3237928.583902735,0.012913933021458936,0.17238885863501868,0.008259310438384855
17,262,0.16999999999999996,0.03768488659525967,0.020414543833866348,0.5724445249652137,0.0064380042537325564,0.10231971900026338,0.0039867818892769585,0.9947227416597569,0.007054865633261424,0.2058789156637811,0.009872236974998524,0.08079791279649336,0.00048115223522754945,0.03763056673101302,0.059078029794452695,3.274400067593718,-0.0038378644812734016,7.93939995765686,0.0461115911602973,0.0260390825569629,0.5392144322395325,,,,,,,,0.7631757233532721,0.6625837206602642,0.6887737844982209,0.7410349209992947,105300.0,105300.0,108700.0,102000.0,7.941350221633911,0.43984825470512634,0.03644136387746063,0.012714557626811795,-0.052949291171992395,2.5514662708192466,-0.26501556425663425,10.685980635152823,7.941350221633911,0.03526263173950861,0.00012473700266650093,0.49982684191703797,0.0,0.0,4.3183360506867073e-07,0.9999999999999067,1.456601105263158e-06,1.402386978473882e-18,-9.568369488545757e-19,0.5809784210526315,3.8947368421051965e-05,2.736842105263137e-05,0.0,0.0,0.0,7.93703031539917,3.4779999256134038,False,True,False,True,True,False,False,1842.1953554960528,3393833.8853697255,1829.7800749732173,3347323.75516929,1889.0436508526775,3568173.938044246,1792.989505595825,3214354.987185777,0.012900529459660982,0.20530276357156318,0.008250737978106066
18,263,0.17999999999999974,0.03900783275859386,0.020344178585743795,0.5725142731477267,0.006753369175125488,0.11780950355387342,0.0040800564420272545,0.9930048670659193,0.007687584079224157,0.23763431908776472,0.010843935284602231,0.10560823633920066,-0.001422144330096024,0.046760352380896986,0.053973194929193655,3.2852280171377664,-0.007097932045389199,7.9541051387786865,0.0475937873125076,0.0258522257208824,0.5392900109291077,,,,,,,,0.8244308293871407,0.6423413303522632,0.6679011153973635,0.790366653366063,108700.0,105600.0,108300.0,104500.0,7.946431636810303,0.7052841666934472,0.026153548580746745,0.01385901262158078,0.21248662081632827,3.144800999629858,-0.2304481932627431,10.859084583005007,7.946431636810303,0.03526263173950861,0.00012473700266650093,0.49982684191703797,0.0,0.0,4.318336050686708e-07,0.9999999999999067,1.456601105263158e-06,1.402386978473882e-18,-9.568369488545757e-19,0.5809784210526315,3.8947368421051965e-05,2.736842105263137e-05,0.0,0.0,0.0,7.93703031539917,3.4779999256134038,False,True,False,True,True,False,False,1886.820687411247,3561936.848365672,1859.253703731516,3456078.6757301074,1906.6475155051658,3634683.2870607297,1815.7519104296478,3299139.120036654,0.012886224482645365,0.2353765751322186,0.008241589003445161
19,264,0.18999999999999997,0.04059328996776549,0.020220024498474667,0.5726401363329447,0.0070700251237469465,0.13355535699155277,0.0041887265835675105,0.9910072834915072,0.00842608266125602,0.2701475626800972,0.011890291458441808,0.13539367215184245,-0.0037020207958517893,0.0575799470136463,0.05691228551327276,3.225789623032477,-0.010416476277734113,7.959186553955078,0.0495882108807563,0.025640781968832,0.5393691658973694,,,,,,,,0.7908801883547629,0.6956790643286505,0.7280451139546844,0.7676156898596663,110700.0,108300.0,111500.0,106400.0,7.966618299484253,0.794778087511621,0.002643221659333986,0.013464231935497206,0.3019805416345021,3.6895025769247907,-0.2107663662566761,11.022768979925708,7.966618299484253,0.05826263173950861,0.00012473700266650093,0.49982684191703797,0.0,0.0,4.318336050686708e-07,0.9999999999999067,1.456601105263158e-06,1.402386978473882e-18,-9.568369488545757e-19,0.7729784210526316,3.8947368421051965e-05,2.736842105263137e-05,0.0,0.0,0.0,7.968149423599243,3.4779999256134038,False,True,False,True,True,False,False,1935.0123418701583,3743069.531764785,1880.620827282595,3537947.8079332854,1930.7842586143156,3728990.8219949543,1854.3816151143214,3438091.8301387904,0.012868447543997952,0.26806236873885636,0.008230219480721982
20,265,0.19999999999999976,0.04249066606576613,0.020054557744701967,0.572825339142875,0.007376830713824546,0.14949962867981165,0.004361845281595425,0.9887246420004699,0.0093606733507129,0.3033348763057886,0.013000503606304895,0.17073027487826867,-0.00611528620922859,0.06795798583820122,0.053998739951392045,3.1591853945082438,-0.01662953553714229,7.969464540481567,0.051811296492815,0.0254774838685989,0.539533257484436,,,,,,,,0.7797507857725572,0.6950303169301784,0.7330660593196806,0.7671487822545539,110700.0,108300.0,111500.0,106400.0,7.966618299484253,0.6318798825897387,-0.021127512257779577,0.012621889027766713,0.13908233671261988,4.030663577689682,-0.24446004745588448,11.105451669479153,7.966618299484253,0.05826263173950861,0.00012473700266650093,0.49982684191703797,0.0,0.0,4.3183360506867073e-07,0.9999999999999067,1.456601105263158e-06,1.402386978473882e-18,-9.568369488545757e-19,0.7729784210526316,3.8947368421051965e-05,2.736842105263137e-05,0.0,0.0,0.0,7.968149423599243,3.4779999256134038,False,True,False,True,True,False,False,1937.851932417378,3754746.1345167016,1892.9211835788637,3583184.7184761493,1959.3088488411058,3839156.413497752,1860.7974653829729,3461452.281589687,0.01559493923043759,0.300602847405641,0.008217369546769784
21,266,0.21,0.04475383038307096,0.019875151636825225,0.5730874747436427,0.007625827992688878,0.16549473943438803,0.00461189859131477,0.9861704053348759,0.010486787584797062,0.336934923921125,0.01406932441694643,0.2103971353100676,-0.008329521004769237,0.07637664662969143,0.04091586621494727,3.1203806937181824,-0.02384569312723115,7.979373216629028,0.0542472191154956,0.025343770161271,0.5396645665168762,,,,,,,,0.823991540098792,0.6880466453196767,0.720048829891822,0.8055017377663903,111500.0,108300.0,112800.0,106800.0,7.976810693740845,0.4098089089215662,-0.03473759771362144,0.012728553958524284,-0.08298863695555264,4.280461769019151,-0.29540554828292254,11.11760377137286,7.976810693740845,0.05826263173950861,0.00012473700266650093,0.49982684191703797,0.0,0.0,4.3183360506867073e-07,0.9999999999999067,1.456601105263158e-06,1.402386978473882e-18,-9.568369488545757e-19,0.7729784210526316,3.8947368421051965e-05,2.736842105263137e-05,0.0,0.0,0.0,7.968149423599243,3.461999893188477,False,True,False,True,True,False,False,1937.1474501423013,3753006.339992981,1883.6643042467686,3547590.2642635377,1955.5466409981793,3823590.189324297,1868.1133938815901,3490960.1884719892,0.015567992775329552,0.3329854646635907,0.008203170775211509
22,267,0.21999999999999978,0.04743066270770289,0.019711388976760124,0.573455592043785,0.007752878594866832,0.1813439553206501,0.00490416203710288,0.9833769429556853,0.01169236743049882,0.37058941530037237,0.01493781859050256,0.251835761147714,-0.010181869293853266,0.0829108620197358,0.02212783005227362,3.0982091524423634,-0.028145918953848666,7.98956561088562,0.0571454167366027,0.0252827014774084,0.5400327444076538,,,,,,,,0.8323692388042669,0.7367034612859029,0.7686607275380424,0.8110349460358781,112400.0,107100.0,111100.0,109500.0,7.986535549163818,0.3471782287591868,-0.03629096681424801,0.013368123993945775,-0.14561931711793213,4.650250264258866,-0.3049918603298384,11.149768101244863,7.986535549163818,0.0882626317395086,0.00012473700266650093,0.49982684191703797,0.0,0.0,4.318336050686708e-07,0.9999999999999067,1.456601105263158e-06,1.402386978473882e-18,-9.568369488545757e-19,0.9669784210526315,3.8947368421051965e-05,2.736842105263137e-05,0.0,0.0,0.0,8.008899688720703,3.461999893188477,False,True,False,True,True,False,False,1969.0340212776634,3877311.654377293,1885.4946875820756,3555907.660721973,1947.8531747736524,3794094.892642638,1902.0017303087957,3618100.1968326545,0.015538368681173554,0.3651912511170773,0.01092418028987335
23,268,0.23,0.05055274395944877,0.019580904401568264,0.5739598377449,0.007712601864316722,0.19683186127135552,0.005175076859315333,0.9803932643283697,0.012810964202082515,0.4038950109897987,0.015474436506602194,0.294285379266271,-0.011791074011563209,0.08984616834184891,0.002538183874643488,3.053911126225792,-0.029543643338245877,7.999290466308594,0.0607929416000843,0.0249815955758094,0.5406525135040283,,,,,,,,0.8136423670939333,0.7428164950038304,0.7910060110272855,0.7989636597654131,114900.0,110700.0,113600.0,110300.0,7.997737407684326,0.43811322482928966,-0.028022942348098788,0.012954695991542461,-0.05468432104782928,5.127284511121106,-0.26419449560803765,11.241137363737671,7.997737407684326,0.0882626317395086,0.00012473700266650093,0.49982684191703797,0.0,0.0,4.318336050686708e-07,0.9999999999999067,1.456601105263158e-06,1.402386978473882e-18,-9.568369488545757e-19,0.9669784210526315,3.8947368421051965e-05,2.736842105263137e-05,0.0,0.0,0.0,8.008899688720703,3.461999893188477,False,True,False,True,True,False,False,2002.731263930667,4010680.166491302,1911.8366735363898,3656112.5717190485,1984.4838898001976,3939623.385295114,1930.8843856436438,3727289.7010676684,0.01550625693600821,0.3972080964041724,0.01090160427170783
24,269,0.2399999999999998,0.054130552158846844,0.01948043536731034,0.5746170872353552,0.007506302895531717,0.21172852273596054,0.0053669351086847025,0.9772849554170102,0.013706796342702745,0.436391944395089,0.01564747834061652,0.34159201388024185,-0.013409576682094679,0.10017393736175684,-0.014740775404592791,2.960007742509987,-0.03256768482685278,8.010492324829102,0.0643598586320877,0.0250770468264818,0.5411386489868164,,,,,,,,0.8060773645847281,0.722343961425595,0.7794149698304158,0.7993229241607991,115400.0,109500.0,116700.0,111500.0,8.006802320480347,0.5220377370356525,-0.010925839988825034,0.011287759929067016,0.029240191158533716,5.569698823176617,-0.2100561370003618,11.302478791165884,8.006802320480347,0.0882626317395086,0.00012473700266650093,0.49982684191703797,0.0,0.0,4.3183360506867073e-07,0.9999999999999067,1.456601105263158e-06,1.402386978473882e-18,-9.568369488545757e-19,0.9669784210526315,3.8947368421051965e-05,2.736842105263137e-05,0.0,0.0,0.0,8.008899688720703,3.461999893188477,False,True,False,True,True,False,False,2011.3733477434573,4045653.443667628,1926.1581704569962,3709712.40315664,2026.6928287778846,4107190.990619762,1946.8103581925084,3790346.4416862475,0.015474626431500233,0.426377169031361,0.010879366587624338
25,270,0.25000000000000006,0.05815887383024496,0.019386240147387743,0.5754215890686127,0.007187532195838807,0.2257827289053571,0.005455625737827956,0.9741358913708048,0.014336526811141658,0.4675250777885347,0.015547857304359387,0.39993766080294824,-0.01517858062917858,0.11468316658104039,-0.023867882286421692,2.8279612625884205,-0.04009518943133696,8.019557237625122,0.06873369961977,0.0246373750269413,0.5422024130821228,,,,,,,,0.783573064070428,0.764923042669817,0.8102213049570934,0.7836716760600063,115400.0,110700.0,115400.0,112800.0,8.020328998565674,0.521337887373345,0.014586675838291319,0.010299702459230212,0.028540341496226373,5.9801714325551,-0.16869192372681074,11.247197746172947,8.020328998565674,0.0882626317395086,0.00012473700266650093,0.49982684191703797,0.0,0.0,4.3183360506867073e-07,0.9999999999999067,1.456601105263158e-06,1.402386978473882e-18,-9.568369488545757e-19,0.9669784210526315,3.8947368421051965e-05,2.736842105263137e-05,0.0,0.0,0.0,8.008899688720703,3.461999893188477,False,True,False,True,True,False,False,2017.7865988210783,4071483.1737019517,1925.2240296188568,3706323.896550876,2023.69190601474,4095198.17865254,1963.99985051938,3857764.0595749347,0.015444091098867399,0.4527359752980881,0.01085789885920723
26,271,0.25999999999999984,0.06263450415592298,0.019263310195864105,0.5763498080170576,0.006840787394746981,0.23874638267924125,0.005456100735935984,0.971042532204515,0.014752762975917294,0.49667734973352007,0.015346653763375332,0.4702355435101318,-0.01701978858971452,0.13077395162221686,-0.017444058075134914,2.6994676068864107,-0.04829267105703265,8.03308391571045,0.0742150694131851,0.0243201851844787,0.5433552265167236,,,,,,,,0.7797457896119278,0.7687195403654097,0.7975814330272153,0.7688904170843662,116700.0,111100.0,115400.0,112400.0,8.026570796966553,0.4951657800318655,0.03904678886175027,0.011620861648959233,0.0023682341547468,6.432033277993174,-0.14516841887368487,11.13441543179408,8.026570796966553,0.1222626317395086,0.00012473700266650093,0.49982684191703797,0.0,0.0,4.318336050686708e-07,0.9999999999999067,1.456601105263158e-06,1.402386978473882e-18,-9.568369488545757e-19,1.1499784210526316,3.8947368421051965e-05,2.736842105263137e-05,0.0,0.0,0.0,8.036965370178223,3.461999893188477,False,True,False,True,True,False,False,2039.6773073347938,4160537.4138448993,1940.497483115465,3765939.5794120086,2008.6239546380712,4034795.417633691,1968.4280137647622,3874354.6348576955,0.012697632541623118,0.4789387487027247,0.01083533444752558
27,272,0.2700000000000001,0.06758225812847549,0.019078844329154535,0.5773785453130797,0.006542009684331432,0.2504667478289904,0.005407354776408277,0.9680879974752198,0.015056910232961207,0.5233699675672823,0.0152069653549957,0.5431125795214964,-0.018716941490679016,0.14449795281060498,0.0028232957929424456,2.607973644343558,-0.05001590154644481,8.039325714111328,0.0796617418527603,0.0240199379622936,0.5445210337638855,,,,,,,,0.8289502792048052,0.6720358670140244,0.7001155546063464,0.7931406946193069,118800.0,112400.0,114900.0,112800.0,8.038487672805786,0.49379675180183547,0.04472590722071515,0.014315734040213591,0.0009992059247165472,6.842852000518802,-0.16388972490816373,11.057993067155302,8.038487672805786,0.1222626317395086,0.00012473700266650093,0.49982684191703797,0.0,0.0,4.318336050686708e-07,0.9999999999999067,1.456601105263158e-06,1.402386978473882e-18,-9.568369488545757e-19,1.1499784210526316,3.8947368421051965e-05,2.736842105263137e-05,0.0,0.0,0.0,8.036965370178223,3.461999893188477,False,True,False,True,True,False,False,2062.581366670708,4254624.011262282,1962.984099856982,3853092.5442784587,2010.965339125264,4043822.510519042,1960.4551415266446,3843418.019942901,0.012672621270294802,0.502376510560368,0.010813991453946915
28,273,0.27999999999999986,0.07307588292213603,0.018814223160601905,0.5785034161429519,0.00632180203328945,0.26102216025950375,0.005349996614275572,0.9652972828143365,0.015338615111946872,0.5475871188426225,0.015200014682067978,0.605480364308961,-0.020112468066261414,0.15388948484860393,0.020523463945377563,2.545281593718533,-0.04326700493311252,8.051242589950562,0.0856537222862243,0.023644158616662,0.5456045269966125,,,,,,,,0.8408298001910887,0.6268600065441106,0.683487838615334,0.819711571671393,118800.0,112400.0,114900.0,112800.0,8.04679822921753,0.4792509618489642,0.027913725342727208,0.016117782430676852,-0.013546584028154717,7.068479616890041,-0.23712254482014372,10.98971402381907,8.04679822921753,0.1222626317395086,0.00012473700266650093,0.49982684191703797,0.0,0.0,4.3183360506867073e-07,0.9999999999999067,1.456601105263158e-06,1.402386978473882e-18,-9.568369488545757e-19,1.1499784210526316,3.8947368421051965e-05,2.736842105263137e-05,0.0,0.0,0.0,8.036965370178223,3.461999893188477,False,True,False,True,True,False,False,2082.178479590638,4334923.331318973,1959.5078226073983,3839590.6874998687,1998.5508130132266,3994270.6721937936,1974.3309309538768,3898104.667216898,0.01261945723948512,0.5488266325830573,0.01076862472495132
29,274,0.2900000000000001,0.07923367379304481,0.01847133447154084,0.5797430181201052,0.0061537412140984975,0.2707890208289223,0.00530943966863051,0.9626044086321175,0.01563759751499831,0.569973946228479,0.015276496575430147,0.6548409250084641,-0.02130764905502388,0.16037043530991235,0.017177793330062002,2.4683868828080455,-0.033973567198996836,8.059553146362305,0.1000282168388366,0.0230861026793718,0.5483881831169128,,,,,,,,0.7776301283066168,0.6849653537217548,0.7787259678501625,0.808709074826891,119300.0,111100.0,113200.0,114100.0,8.056710720062256,0.40907846883966553,0.00953596256017929,0.016354071218529935,-0.0837190770374533,7.15221562620661,-0.28930161638668933,10.86572193151804,8.056710720062256,0.2112626317395086,0.00012473700266650093,0.49982684191703797,0.0,0.0,4.3183360506867073e-07,0.9999999999999067,1.456601105263158e-06,1.402386978473882e-18,-9.568369488545757e-19,1.4859784210526317,3.8947368421051965e-05,2.736842105263137e-05,0.0,0.0,0.0,8.077012062072754,3.489000082015991,False,True,False,True,True,False,False,2089.36649826148,4364568.833181072,1940.1263932881177,3764265.217087332,1975.9566533798923,3904231.6280424185,1996.5726009640914,3985503.1169567583,0.01261945723948512,0.5488266325830573,0.01076862472495132
30,275,0.2999999999999999,0.08617661386026723,0.018072051927115432,0.5811247711967511,0.0059751425068069585,0.28031861469159464,0.005290934960877581,0.9598738343848364,0.015940922131822487,0.5916173075938103,0.01530782001000519,0.7046209188802306,-0.02263884565488175,0.16678791274487664,-0.007573803537680629,2.343722946123438,-0.02969045526069313,8.059553146362305,0.1000282168388366,0.0230861026793718,0.5483881831169128,,,,,,,,0.7455593184914349,0.7215746931604907,0.8122201261109627,0.7821483384419798,119300.0,111100.0,113200.0,114100.0,8.056710720062256,0.3162912427870965,0.009993432444485043,0.016347592843980283,-0.17650630309002224,7.266923954352702,-0.23271572753806857,10.696572853591253,8.056710720062256,0.2112626317395086,0.00012473700266650093,0.49982684191703797,0.0,0.0,4.318336050686708e-07,0.9999999999999067,1.456601105263158e-06,1.402386978473882e-18,-9.568369488545757e-19,1.4859784210526317,3.8947368421051965e-05,2.736842105263137e-05,0.0,0.0,0.0,8.077012062072754,3.489000082015991,False,True,False,True,True,False,False,2057.750327560505,4236365.226258928,1940.0900631888112,3764022.2216562456,1989.042191041538,3957089.0109106167,1974.8022135371484,3901172.3182035317,0.01261945723948512,0.5488266325830573,0.01076862472495132
31,276,0.30999999999999966,0.09396426666668584,0.01765192591476059,0.5826624632562207,0.005726069964333109,0.29004262568713973,0.005285423632349824,0.9569820017661251,0.0162066892893927,0.6134251798731042,0.01516586751903338,0.7722280462635482,-0.024299013336932913,0.17403565497313955,-0.033646295608658214,2.177910337038885,-0.0328239632149833,8.079308271408081,0.1082643866539001,0.0229903385043144,0.5500720739364624,,,,,,,,0.7797437178667023,0.6965578106750688,0.7490756653239249,0.7630323651171398,114100.0,111900.0,116700.0,109900.0,8.077352285385132,0.2684430732074007,0.020677564667164427,0.016996066723543812,-0.22435447266971806,7.453237807235193,-0.12320563764250386,10.46741696004382,8.077352285385132,0.2112626317395086,0.00012473700266650093,0.49982684191703797,0.0,0.0,4.318336050686708e-07,0.9999999999999067,1.456601105263158e-06,1.402386978473882e-18,-9.568369488545757e-19,1.4859784210526317,3.8947368421051965e-05,2.736842105263137e-05,0.0,0.0,0.0,8.077012062072754,3.489000082015991,False,True,False,True,True,False,False,2016.3416340454344,4066850.937242963,1952.300545934197,3811263.405018611,2015.3447476685853,4062448.2616104186,1932.8118402964133,3736621.6317781475,0.012604485962933395,0.5912867182680598,0.010755849210459734
32,277,0.3199999999999999,0.10255070166377454,0.017250071724532096,0.5843414500834393,0.005381489656761539,0.3000029039634963,0.0052808287954844175,0.9539084914339405,0.016396384045671807,0.635525219130563,0.014790339189495022,0.8625395196130474,-0.025959832063939876,0.18001131220504146,-0.042295842492157225,1.9971516150371116,-0.04103866901764895,8.090107202529907,0.1174452453851699,0.0226014424115419,0.5518516898155212,,,,,,,,0.7927824068521183,0.6724241341322519,0.7050155211083666,0.7433567610562324,115800.0,111100.0,113600.0,110300.0,8.086405992507935,0.2960611813087291,0.011734769185936472,0.017257383859247147,-0.1967363645683897,7.591925488836338,-0.0961096260604853,10.083187550710111,8.086405992507935,0.2112626317395086,0.00012473700266650093,0.49982684191703797,0.0,0.0,4.3183360506867073e-07,0.9999999999999067,1.456601105263158e-06,1.402386978473882e-18,-9.568369488545757e-19,1.4859784210526317,3.8947368421051965e-05,2.736842105263137e-05,0.0,0.0,0.0,8.106767892837524,3.489000082015991,False,True,False,True,True,False,False,2015.0276276158459,4059974.188907097,1936.768197384432,3751236.0219664862,1998.5583941206382,3994724.587743278,1927.6867741370284,3715302.4407862993,0.009920951727021628,0.6108199486574152,0.010767696227841428
33,278,0.3299999999999997,0.11179936658631974,0.016897887727952608,0.5861210193534998,0.0049591255668502135,0.30981079450843463,0.0052724084046844285,0.9507706770769063,0.016500170920811838,0.6571427813598109,0.014209569540844492,0.9633911832550728,-0.02694300677848498,0.1821133116827167,-0.036261209144331584,1.81164520705756,-0.051519095480799734,8.09916090965271,0.1272010058164596,0.0224802792072296,0.5535707473754883,,,,,,,,0.7511942465791706,0.681501702703349,0.7191352071831769,0.7136050583946507,116700.0,107900.0,111900.0,111500.0,8.097849607467651,0.38546933195892763,-0.030102980853019594,0.015706777021744663,-0.10732821391819126,7.612220115870681,-0.16252477778624763,9.560106285989026,8.097849607467651,0.2112626317395086,0.00012473700266650093,0.49982684191703797,0.0,0.0,4.3183360506867073e-07,0.9999999999999067,1.456601105263158e-06,1.402386978473882e-18,-9.568369488545757e-19,1.4859784210526317,3.8947368421051965e-05,2.736842105263137e-05,0.0,0.0,0.0,8.106767892837524,3.515000104904175,False,True,False,True,True,False,False,2023.103498726746,4093494.636085565,1887.2938816379597,3562327.2609537616,1949.973778083271,3801855.776498665,1926.7909053065787,3713314.4512961246,0.00993233594342338,0.6304244269628768,0.010780052077096515
34,279,0.3399999999999999,0.1215587897420825,0.01661013753898778,0.5879510284333818,0.0045037444938262885,0.3188637292460012,0.005267237051677157,0.9477752342568931,0.016545202168238193,0.6770381278355364,0.013514555956403608,1.054959721308743,-0.026895932619956743,0.18011690821198062,-0.03302221559810289,1.6203349494533652,-0.06214389060419086,8.110604524612427,0.1375624239444732,0.0221995562314987,0.5555116534233093,,,,,,,,0.6997671384958893,0.7287114072121926,0.7689724393589881,0.6775989809368039,114100.0,105600.0,109900.0,107100.0,8.106600046157837,0.4930917747167016,-0.0765748497243924,0.012922840232938501,0.0002942288395827407,7.583446956979374,-0.22172986880390685,9.13606073000139,8.106600046157837,0.2112626317395086,0.00012473700266650093,0.49982684191703797,0.0,0.0,4.318336050686708e-07,0.9999999999999067,1.456601105263158e-06,1.402386978473882e-18,-9.568369488545757e-19,1.4859784210526317,3.8947368421051965e-05,2.736842105263137e-05,0.0,0.0,0.0,8.106767892837524,3.515000104904175,False,True,False,True,True,False,False,2006.3360140026248,4026157.227338682,1842.0864137028284,3392654.6314504803,1914.874779942717,3666201.982229666,1889.322331097833,3571170.426944362,0.009942428530678848,0.6472845780926276,0.01079100605779414
35,280,0.35000000000000014,0.13175833279968893,0.016381908002840315,0.5897912421735774,0.004061911372546352,0.32666338747221285,0.005280694385919584,0.9451172659664953,0.016583246620380236,0.694178612231401,0.012809675667535363,1.1247345236519475,-0.026239199789705743,0.17584361170044802,-0.04170705584486906,1.435570598779949,-0.06987592418239756,8.119354963302612,0.1486996859312057,0.0220123920589685,0.5573882460594177,,,,,,,,0.6677410090920641,0.7815046696761941,0.8214769160733265,0.6507739259314016,114100.0,105600.0,109900.0,107100.0,8.119195938110352,0.5495050910455164,-0.08352455134625723,0.011285971062308485,0.056707545168397565,7.583800714853839,-0.22807660327433765,8.994949639579694,8.119195938110352,0.2112626317395086,0.00012473700266650093,0.49982684191703797,0.0,0.0,4.318336050686708e-07,0.9999999999999067,1.456601105263158e-06,1.402386978473882e-18,-9.568369488545757e-19,1.4859784210526317,3.8947368421051965e-05,2.736842105263137e-05,0.0,0.0,0.0,8.106767892837524,3.515000104904175,False,True,False,True,True,False,False,1992.218008927237,3968033.0466867434,1836.1641670730114,3371591.726291716,1914.387822585542,3665584.5435132002,1860.9078197978438,3462205.657766453,0.007253205165626696,0.6783329256530233,0.010811926202160023
36,281,0.35999999999999993,0.1424640545012904,0.0161927760249012,0.5916213346265715,0.0036624865379580535,0.33303007649571187,0.0053263193151373515,0.9428940474221761,0.016661190688262224,0.708201309888776,0.012167027830006042,1.1778458065037474,-0.025820109869942494,0.1702912655598884,-0.05449947234234745,1.270484951427357,-0.07153903980395164,8.119354963302612,0.1486996859312057,0.0220123920589685,0.5573882460594177,,,,,,,,0.6734928899765538,0.7464106687933111,0.7884683161049516,0.6578186755903557,114100.0,105600.0,109900.0,107100.0,8.119195938110352,0.5072529894746427,-0.04620085928164839,0.012232168554493557,0.01445544359752382,7.577850647268409,-0.20122693337057845,8.972737085879427,8.119195938110352,0.2112626317395086,0.00012473700266650093,0.49982684191703797,0.0,0.0,4.3183360506867073e-07,0.9999999999999067,1.456601105263158e-06,1.402386978473882e-18,-9.568369488545757e-19,1.4859784210526317,3.8947368421051965e-05,2.736842105263137e-05,0.0,0.0,0.0,8.106767892837524,3.515000104904175,False,True,False,True,True,False,False,1977.5356911650088,3910906.626599432,1857.9391791175447,3451931.470709852,1935.075365328517,3743850.7433041874,1868.0067027192133,3489016.0769477454,0.007253205165626696,0.6783329256530233,0.010811926202160023
37,282,0.3699999999999997,0.15385395201835142,0.01601592868258939,0.5934364596317141,0.0033113476676748356,0.33809211107488135,0.005403987111216837,0.9410916832747253,0.016787222962004727,0.71939325616579,0.011603273019957068,1.232871668510457,-0.026107939314222145,0.1621320876595992,-0.060221906805748564,1.1026795058454777,-0.06742950067706359,8.131950855255127,0.1732106208801269,0.021556431427598,0.5607849955558777,,,,,,,,0.7167996559804386,0.6153818370087163,0.6594630486383579,0.6973157624965103,110700.0,107100.0,111500.0,107100.0,8.126545906066895,0.4008865255377091,-0.010176668224388995,0.014650792976842218,-0.09191102033940968,7.479797644353084,-0.1420611929044172,8.758393259792033,8.126545906066895,0.2622626317395086,0.00012473700266650093,0.49982684191703797,0.0,0.0,4.3183360506867073e-07,0.9999999999999067,1.456601105263158e-06,1.402386978473882e-18,-9.568369488545757e-19,1.6189784210526317,3.8947368421051965e-05,2.736842105263137e-05,0.0,0.0,0.0,8.126896381378174,3.5409998893737797,False,True,False,True,True,False,False,1942.4467661727335,3774524.017876586,1853.467856851008,3435391.408441735,1924.1436429789171,3702768.2438206663,1870.8241604078987,3500395.0071830284,0.007253205165626696,0.6783329256530233,0.010811926202160023
38,283,0.37999999999999995,0.1661245845101691,0.015827579672623535,0.5952334581040343,0.002999074365021063,0.3420851458550396,0.005493897175260738,0.9396481126635211,0.016912849587591636,0.7282569311160136,0.011084741915614997,1.3043362952450441,-0.026816299722292197,0.14938806746226485,-0.05796823912611114,0.8778639154444412,-0.06232931687922195,8.149110794067383,0.1867676526308059,0.0214165654033422,0.5622917413711548,,,,,,,,0.7278865820437728,0.5363553204601074,0.5921769675273891,0.7107803335755543,109900.0,102700.0,106000.0,106400.0,8.146305322647095,0.3040419897598174,-0.014080462493202963,0.016775815772154645,-0.18875555611730135,7.280057246158448,-0.05726979211866712,8.315606221804686,8.146305322647095,0.2622626317395086,0.00012473700266650093,0.49982684191703797,0.0,0.0,4.318336050686708e-07,0.9999999999999067,1.456601105263158e-06,1.402386978473882e-18,-9.568369488545757e-19,1.6189784210526317,3.8947368421051965e-05,2.736842105263137e-05,0.0,0.0,0.0,8.126896381378174,3.5409998893737797,False,True,False,True,True,False,False,1921.40556690919,3691312.3167485627,1799.5702845189421,3240098.8165522544,1862.197514818151,3470487.2687127925,1859.1415647055078,3456620.1592904013,0.007262569462119344,0.6981926883740968,0.010825885007998505
39,284,0.38999999999999974,0.1793899944817297,0.015612835071846843,0.5969986416844738,0.0027116623215329896,0.34512386887914964,0.005562938268704975,0.9385367418141711,0.016947625861928023,0.7350157591253981,0.010550352282054807,1.3896982221741676,-0.027318681981325175,0.13178429971117678,-0.053840426836973904,0.560239113447101,-0.061013959280410174,8.15906023979187,0.2005818784236908,0.0210262387990951,0.5636947154998779,,,,,,,,0.6698821690402488,0.5745714086639041,0.6446306302893219,0.663489985736187,110700.0,99700.0,103800.0,106400.0,8.156484365463257,0.22982803799149304,-0.04121277227297163,0.018731743361136782,-0.26296950788562573,7.035214866730866,0.00347504618475232,7.882940987508224,8.156484365463257,0.3182626317395086,0.00012473700266650093,0.49982684191703797,0.0,0.0,4.318336050686708e-07,0.9999999999999067,1.456601105263158e-06,1.402386978473882e-18,-9.568369488545757e-19,1.7289784210526318,3.8947368421051965e-05,2.736842105263137e-05,0.0,0.0,0.0,8.176811218261719,3.5409998893737797,False,True,False,True,True,False,False,1921.450262139876,3691442.3660766347,1744.6107468805262,3043139.728512208,1813.7911157981885,3288797.564406431,1853.7048537004434,3435878.1829795446,0.004553132349900766,0.7067257425975908,0.010831970799420753
40,285,0.39999999999999997,0.19363366074700325,0.015367261670013406,0.598704510158755,0.0024340843271898147,0.34710364757545176,0.005583226644810187,0.937806995417254,0.016805337765274223,0.7394088332539321,0.009934097560102632,1.47472979422432,-0.027282273826842618,0.11088042515606399,-0.05047988970844775,0.17076378729654992,-0.06306688356108275,8.169239282608032,0.2152769118547439,0.0207131449133157,0.5650174617767334,,,,,,,,0.6257878507155956,0.6114874984931178,0.6707073766967129,0.6162833496647881,108300.0,99700.0,104200.0,105300.0,8.166340827941895,0.14253087119802152,-0.046805150619190036,0.02164384607536512,-0.3502666746790972,6.777411514516268,0.008485467833046222,7.6208617871601785,8.166340827941895,0.3182626317395086,0.00012473700266650093,0.49982684191703797,0.0,0.0,4.3183360506867073e-07,0.9999999999999067,1.456601105263158e-06,1.402386978473882e-18,-9.568369488545757e-19,1.7289784210526318,3.8947368421051965e-05,2.736842105263137e-05,0.0,0.0,0.0,8.176811218261719,3.5409998893737797,False,True,False,True,True,False,False,1895.4864126985608,3594018.7421883615,1729.9307028737928,2992166.096251543,1812.1229397442166,3282938.832484026,1839.7650644928835,3384539.099834011,0.004554023488264347,0.7095780762739251,0.01354814078660158
41,286,0.40999999999999975,0.20872815193504748,0.015095742687410547,0.6003139848285766,0.002146467137201005,0.34776473365594923,0.005552232960205481,0.9375629341079943,0.016455850375459623,0.7408471051910619,0.009177496868083668,1.5486521145510745,-0.026822848650495692,0.08854045803693632,-0.04662965082328711,-0.2285214384992324,-0.06363999982442527,8.17909574508667,0.2305340617895126,0.0204526707530021,0.5663213729858398,,,,,,,,0.6448834902451722,0.583054966336334,0.6241422216915831,0.6224279817612374,105600.0,98700.0,103400.0,103100.0,8.176298141479492,0.05864364538316558,-0.017870583647983232,0.024811116708928584,-0.4341539004939532,6.509508495041896,-0.01684812039615987,7.472247970107125,8.176298141479492,0.3182626317395086,0.00012473700266650093,0.49982684191703797,0.0,0.0,4.3183360506867073e-07,0.9999999999999067,1.456601105263158e-06,1.402386978473882e-18,-9.568369488545757e-19,1.7289784210526318,3.8947368421051965e-05,2.736842105263137e-05,0.0,0.0,0.0,8.176811218261719,3.562999963760376,False,True,False,True,True,False,False,1848.1529443242443,3415751.4386171885,1730.2430777050981,2994060.2635449027,1804.407120344757,3256967.958779823,1799.2903076661744,3237969.0775957517,0.0045548714276178294,0.7124247738471231,0.010836108091641034
42,287,0.42,0.2244940533373909,0.014810159166070213,0.6017855433199312,0.0018214294028669321,0.3468337081468124,0.005499938732920149,0.9379087439415393,0.015947946699399848,0.7387381692892122,0.00823490045003977,1.611552456542444,-0.026241906621235152,0.06599931556940862,-0.04531101113252402,-0.5865037880522131,-0.05938991263055027,8.189053058624268,0.2464633285999298,0.0202982407063245,0.5674643516540527,,,,,,,,0.6654759196934041,0.5438613635733265,0.6021163571518386,0.6473642567894362,105300.0,98000.0,101000.0,101000.0,8.186202764511108,0.0483617912040302,0.014484753206588031,0.02593535208537119,-0.4444357546730886,6.2407052819585775,-0.035623647838494664,7.341555298561895,8.186202764511108,0.3782626317395086,0.00012473700266650093,0.49982684191703797,0.0,0.0,4.318336050686708e-07,0.9999999999999067,1.456601105263158e-06,1.402386978473882e-18,-9.568369488545757e-19,1.8109784210526316,3.8947368421051965e-05,2.736842105263137e-05,0.0,0.0,0.0,8.206378936767578,3.562999963760376,False,True,False,True,True,False,False,1826.127760492868,3333855.799838517,1709.6769059991902,2922994.551269629,1770.380709779011,3134493.8729489413,1760.5832245593394,3099538.9426622065,0.004553999741739522,0.709574376246148,0.010834034337738338
43,288,0.42999999999999977,0.24076127985844825,0.014526419315017473,0.6030743820166834,0.0014290719315584485,0.34413583099307365,0.005478771211725877,0.9389028014901918,0.015391925714501088,0.7327363386337582,0.007078877238078835,1.6699795784805926,-0.025825764134647173,0.04386944828004931,-0.05526847875943345,-0.9018911675466511,-0.05209449724267165,8.198957681655884,0.262792706489563,0.020051185041666,0.5683078765869141,,,,,,,,0.6527101138407034,0.5163590625002815,0.60723084123425,0.6508665792315176,103800.0,96200.0,100700.0,100000.0,8.196037769317627,0.1222296879097984,0.015820343242212223,0.02431961008192071,-0.3705678579673204,5.974586710926333,-0.03421585724216765,7.230546797668359,8.196037769317627,0.3782626317395086,0.00012473700266650093,0.49982684191703797,0.0,0.0,4.318336050686708e-07,0.9999999999999067,1.456601105263158e-06,1.402386978473882e-18,-9.568369488545757e-19,1.8109784210526316,3.8947368421051965e-05,2.736842105263137e-05,0.0,0.0,0.0,8.206378936767578,3.562999963760376,False,True,False,True,True,False,False,1824.5369287084086,3329181.214232931,1673.0290115298128,2799025.276196531,1749.1404433414546,3058653.3627972477,1750.011396276976,3062177.449068682,0.001838902615137769,0.7010278371749855,0.00811531587917375
44,289,0.44,0.25741154640760766,0.014261066336159966,0.6041307426902158,0.0009488733502094437,0.3396272950648349,0.005546379755254426,0.9405432673502688,0.014924857424315709,0.7227983007178975,0.005712492338996685,1.7293122049854197,-0.025765056767677267,0.021934489360514477,-0.08077657402165869,-1.2152466579399777,-0.04594736888333571,8.208792686462402,0.2797636091709137,0.0197527110576629,0.5689718723297119,,,,,,,,0.6308243576802297,0.49900733708485606,0.595338191585584,0.6356206017486572,104200.0,93500.0,99700.0,100000.0,8.206399202346802,0.20150209300571298,-0.01434969846434098,0.021903524647445646,-0.2912954528714058,5.722492549316375,-0.01473949614212838,7.172735242644037,8.206399202346802,0.3782626317395086,0.00012473700266650093,0.49982684191703797,0.0,0.0,4.3183360506867073e-07,0.9999999999999067,1.456601105263158e-06,1.402386978473882e-18,-9.568369488545757e-19,1.8109784210526316,3.8947368421051965e-05,2.736842105263137e-05,0.0,0.0,0.0,8.206378936767578,3.562999963760376,False,True,False,True,True,False,False,1808.9212040118582,3272874.2403680924,1641.4430981849725,2694438.3483568374,1745.0304845396793,3045433.676720081,1741.5490169007612,3033066.8678668775,0.001837900415207529,0.6925127924267478,0.01624387381687395
45,290,0.4499999999999998,0.2743981886808634,0.014027744931192576,0.6049016155327439,0.0003840205377463456,0.3333623819209102,0.00575021673114628,0.9427811569265631,0.01467992118204842,0.7090788795168773,0.004189010211207384,1.7903240553800448,-0.0259544436669265,-0.0011586409084106885,-0.11185316329746306,-1.5648181022483745,-0.04307183193475208,8.219154119491577,0.2973981499671936,0.0196946300566196,0.569475531578064,,,,,,,,0.6096537000539304,0.5090168190246688,0.5973165890808021,0.6117126531114556,102000.0,93200.0,99300.0,98000.0,8.219676733016968,0.23859610985821073,-0.04722942436872059,0.020674917936619512,-0.254201436018908,5.523663528312858,0.013672330243236563,7.154410847765076,8.219676733016968,0.3782626317395086,0.00012473700266650093,0.49982684191703797,0.0,0.0,4.3183360506867073e-07,0.9999999999999067,1.456601105263158e-06,1.402386978473882e-18,-9.568369488545757e-19,1.8109784210526316,3.8947368421051965e-05,2.736842105263137e-05,0.0,0.0,0.0,8.206378936767578,3.572999954223633,False,True,False,True,True,False,False,1782.0085190367531,3175440.6635824405,1617.966112848038,2617914.880297329,1731.9892259810954,3000098.458318483,1708.52055730843,2919706.692934909,0.001836195051369817,0.67832784020056,0.010811845145300392
46,291,0.46,0.291748559139915,0.01383352820815132,0.6053403757813334,-0.00022799052775813794,0.3254420130929911,0.006109884510524517,0.9455422325023715,0.014748022202439013,0.6917824120594317,0.0026233092458440572,1.8504517212562195,-0.025825639371886002,-0.02704160974424578,-0.12736139714220107,-1.9490481125611474,-0.04313534408605234,8.232431650161743,0.3154992461204529,0.019595269113779,0.5697860717773438,,,,,,,,0.596704188263177,0.5346873320158029,0.6209301837386851,0.5905290927127509,100300.0,91200.0,98700.0,95500.0,8.226247310638428,0.2825903388453223,-0.05798308861461253,0.02053281622541007,-0.21020720703179643,5.3612592294273,0.044537933467593195,7.158126044344916,8.226247310638428,0.4382626317395086,0.00012473700266650093,0.49982684191703797,0.0,0.0,4.318336050686708e-07,0.9999999999999067,1.456601105263158e-06,1.402386978473882e-18,-9.568369488545757e-19,1.8579784210526318,3.8947368421051965e-05,2.736842105263137e-05,0.0,0.0,0.0,8.236402988433838,3.572999954223633,False,True,False,True,True,False,False,1759.767544071863,3096343.9644113006,1596.8735902647095,2550009.2236612206,1719.8838449044547,2957549.638675589,1674.1674056891661,2802624.4816798493,-0.0008714997835238858,0.6641886948153708,0.010802139533364804
47,292,0.4699999999999998,0.30955479428595795,0.013675417166970178,0.6054202455972465,-0.0008167436093966283,0.31597855990775914,0.006593920664986238,0.9487430647012705,0.015118019858427936,0.6710669246520274,0.0011713553768813694,1.9067732522850218,-0.024645089509526014,-0.05581943643825042,-0.110344077501942,-2.328376237047058,-0.0462260780684446,8.239002227783203,0.3341161906719208,0.0192752033472061,0.569677472114563,,,,,,,,0.606586278871525,0.5526217781668095,0.6238393279562908,0.582706932977133,100300.0,91200.0,98700.0,95500.0,8.226247310638428,0.3627540081511786,-0.048149641675177886,0.0201256703928039,-0.13004353772594016,5.119898714492781,0.07855708504883513,7.217656275285236,8.226247310638428,0.4382626317395086,0.00012473700266650093,0.49982684191703797,0.0,0.0,4.318336050686708e-07,0.9999999999999067,1.456601105263158e-06,1.402386978473882e-18,-9.568369488545757e-19,1.8579784210526318,3.8947368421051965e-05,2.736842105263137e-05,0.0,0.0,0.0,8.236402988433838,3.572999954223633,False,True,False,True,True,False,False,1733.9989556787423,3007323.106580205,1588.8147615976804,2524329.7245453764,1728.9985414645585,2989631.57876392,1659.8540664536574,2754847.6177486433,-0.0008704438535266432,0.644464541670429,0.013491818523097616
48,293,0.48000000000000004,0.3279542472921028,0.013538726576114551,0.6051409540280278,-0.0012976858726387363,0.30508061698449135,0.0071061940918968084,0.9522991311333148,0.015628732375995616,0.6470273434402471,-2.5049953689224025e-05,1.958101633109018,-0.02220743142040262,-0.08541163298141727,-0.06325891176090961,-2.659570898491282,-0.0539337355199262,8.248721837997437,0.3528509438037872,0.019098911434412,0.5696212649345398,,,,,,,,0.624714921832582,0.5657994624484338,0.608332548455472,0.581292988375816,97100.0,91700.0,100000.0,94300.0,8.247507333755493,0.39882199322109557,-0.03625520285746326,0.018674641606259486,-0.09397555265602316,4.74560371453296,0.10317926450118135,7.362913626366775,8.247507333755493,0.4382626317395086,0.00012473700266650093,0.49982684191703797,0.0,0.0,4.3183360506867073e-07,0.9999999999999067,1.456601105263158e-06,1.402386978473882e-18,-9.568369488545757e-19,1.8579784210526318,3.8947368421051965e-05,2.736842105263137e-05,0.0,0.0,0.0,8.236402988433838,3.572999954223633,False,True,False,True,True,False,False,1709.4712312103989,2922866.7553891903,1604.3068658355414,2573986.1640395704,1738.4585773436036,3022542.989701408,1647.5676170549623,2714845.682114305,-0.003567832701143334,0.6192060849585026,0.013471508535155937
49,294,0.4899999999999998,0.3470967858025139,0.01339975577249617,0.604522313659281,-0.0016029647552966066,0.2928447628489989,0.007504820142128561,0.9561292031156361,0.015992848976814366,0.619733088469741,-0.0008980509713571757,2.0053212190865595,-0.019215301865904817,-0.11314332787644907,-0.009070204348342204,-2.9276208449172154,-0.06689506233278315,8.260262250900269,0.3722543716430664,0.0190162248909473,0.5693603157997131,,,,,,,,0.6266854884049584,0.582652284412138,0.6117023821126448,0.5804740525255654,98400.0,93500.0,98700.0,93200.0,8.256350755691528,0.32752051823718104,-0.033938806750223025,0.01655719979432655,-0.16527702763993773,4.3579526113228715,0.09073062478291144,7.548626643637087,8.256350755691528,0.5642626317395085,0.00012473700266650093,0.49982684191703797,0.0,0.0,4.3183360506867073e-07,0.9999999999999067,1.456601105263158e-06,1.402386978473882e-18,-9.568369488545757e-19,1.8559784210526318,3.8947368421051965e-05,2.736842105263137e-05,0.0,0.0,0.0,8.276766538619995,3.562999963760376,False,True,False,True,True,False,False,1710.4171015228096,2925518.2198515106,1626.7482368102237,2646137.880077023,1726.7938104012603,2981579.2003826587,1628.8309112632771,2653157.9116809764,-0.003562729428357998,0.5940668902294379,0.016147079681976716
50,295,0.5,0.3670983505979378,0.01323329423839002,0.6035897332785405,-0.0017083264404712895,0.27935121433391824,0.007656415279365344,0.9601569454917295,0.015910655221116548,0.5892942743580495,-0.0014778333270124662,2.0506733235859227,-0.016829694514357986,-0.13792279279207037,0.0249721593487567,-3.1483387687250777,-0.08202966775821022,8.269105672836304,0.3920589685440063,0.0188886523246765,0.5689952373504639,,,,,,,,0.6189974081353807,0.5990436748477455,0.6349607591072001,0.5911233768723816,98400.0,93500.0,98700.0,92900.0,8.265990972518921,0.23822690697628401,-0.03789299083774754,0.014783703579947542,-0.25457063890083476,4.085953270349109,0.04415479105348898,7.71327326499137,8.265990972518921,0.5642626317395085,0.00012473700266650093,0.49982684191703797,0.0,0.0,4.318336050686708e-07,0.9999999999999067,1.456601105263158e-06,1.402386978473882e-18,-9.568369488545757e-19,1.8559784210526318,3.8947368421051965e-05,2.736842105263137e-05,0.0,0.0,0.0,8.276766538619995,3.562999963760376,False,True,False,True,True,False,False,1719.6387587972645,2956925.596441839,1634.7205114154963,2672466.5810825843,1718.7631378479323,2954117.1609297744,1619.6910517088395,2623137.968638593,-0.0035611832388209867,0.5641787063305437,0.016140072008180656
51,296,0.5099999999999998,0.3879898926230688,0.013022168972765478,0.6023627895476906,-0.0016403487964936523,0.26467597430657197,0.007499051781956664,0.9643068505942827,0.015218569503373455,0.555946109630314,-0.0018642344685203614,2.096941426705924,-0.01577583872399754,-0.16058309975570345,0.02751642581639785,-3.3471072609323347,-0.09332026646775049,8.278745889663696,0.3920589685440063,0.0188886523246765,0.5689952373504639,,,,,,,,0.6246629740241547,0.606034609748859,0.6483884737234409,0.6138565594082783,97700.0,93200.0,98700.0,92900.0,8.275808572769165,0.2576109910591555,-0.04149698330882214,0.014110689274094809,-0.2351865548179632,3.88275136477864,0.008437163091565955,7.891784173104707,8.275808572769165,0.5642626317395085,0.00012473700266650093,0.49982684191703797,0.0,0.0,4.318336050686708e-07,0.9999999999999067,1.456601105263158e-06,1.402386978473882e-18,-9.568369488545757e-19,1.8559784210526318,3.8947368421051965e-05,2.736842105263137e-05,0.0,0.0,0.0,8.276766538619995,3.562999963760376,False,True,False,True,True,False,False,1701.465194363339,2895279.070591433,1630.537824164439,2658906.545473759,1733.1962170004965,3004696.943924853,1620.977258657319,2627631.2269362863,-0.0035707369712400607,0.5359823963930465,0.01618337164171532
52,297,0.52,0.40968210343694733,0.012764111876532355,0.6008534817725204,-0.0014611674974718777,0.24892469347130425,0.007076073049422683,0.9684958911425287,0.013981816308268924,0.5201270106854781,-0.002167091617985201,2.146216143420085,-0.015884583814089085,-0.18217745582990538,0.00901006272273273,-3.5388168068325525,-0.09637816208161742,8.28856348991394,0.3920589685440063,0.0188886523246765,0.5689952373504639,,,,,,,,0.6461661728897609,0.6095183309302215,0.6472010844896564,0.6316698161526859,95800.0,94300.0,101400.0,92900.0,8.28611445426941,0.349167500926597,-0.044923931774809384,0.014234541962175936,-0.14363004495052173,3.6057974396370787,0.005294694469134186,8.181450250265826,8.28611445426941,0.5642626317395085,0.00012473700266650093,0.49982684191703797,0.0,0.0,4.3183360506867073e-07,0.9999999999999067,1.456601105263158e-06,1.402386978473882e-18,-9.568369488545757e-19,1.8559784210526318,3.8947368421051965e-05,2.736842105263137e-05,0.0,0.0,0.0,8.306732892990112,3.562999963760376,False,True,False,True,True,False,False,1677.2811504376448,2813264.5719952267,1633.8445116902435,2668762.564094399,1749.9902561545773,3062249.010711168,1621.7550359046352,2630219.6175351697,-0.0008722668715790641,0.5049760690812685,0.013520075174721891
53,298,0.5299999999999998,0.43197000100061034,0.0124724253351867,0.5990719300364448,-0.001242979402537674,0.23226103226167522,0.006518785380219555,0.9726308515218466,0.012470027592590253,0.48248339545688146,-0.002459099285735561,2.1977353227129273,-0.016432399426754313,-0.20237664043510678,-0.010623300054796957,-3.7230510386010076,-0.09254283633634264,8.298869371414185,0.3920589685440063,0.0188886523246765,0.5689952373504639,,,,,,,,0.6616118585316972,0.6272493976119784,0.6582416336824839,0.6403780932323383,96500.0,94300.0,100000.0,92900.0,8.296236515045166,0.3514195097155737,-0.053692443137895014,0.013936825339718623,-0.14137803616154498,3.2234514594864745,0.004844987021733436,8.588211542720638,8.296236515045166,0.5642626317395085,0.00012473700266650093,0.49982684191703797,0.0,0.0,4.3183360506867073e-07,0.9999999999999067,1.456601105263158e-06,1.402386978473882e-18,-9.568369488545757e-19,1.8559784210526318,3.8947368421051965e-05,2.736842105263137e-05,0.0,0.0,0.0,8.306732892990112,3.5199999809265137,False,True,False,True,True,False,False,1683.2330530770714,2833526.1517407848,1662.9519014583288,2765894.51264772,1767.7858958921736,3125259.653909044,1624.1523815793532,2637797.8832886927,-0.0035900939949452776,0.4737150515517684,0.01355556326377603
54,299,0.54,0.45458976167921084,0.012170286323564235,0.5970326278572133,-0.0010478070479854698,0.21488232706167784,0.005986482990726508,0.9766210368604344,0.011026564356817802,0.44372679906586127,-0.0027702324249472684,2.246902204011398,-0.016800004708551662,-0.21994989927757064,-0.01845783706483174,-3.8899494763919673,-0.08766127949164602,8.308991432189941,0.3920589685440063,0.0188886523246765,0.5689952373504639,,,,,,,,0.6607369441951403,0.6581679214094278,0.6907632263808529,0.6486373675368414,98000.0,99000.0,104200.0,94000.0,8.306354522705078,0.20980897394235953,-0.07318991837744093,0.01254658827542711,-0.2829885719347592,2.8417795293741213,-0.009144158380655958,9.011876860546495,8.306354522705078,0.5642626317395085,0.00012473700266650093,0.49982684191703797,0.0,0.0,4.318336050686708e-07,0.9999999999999067,1.456601105263158e-06,1.402386978473882e-18,-9.568369488545757e-19,1.8559784210526318,3.8947368421051965e-05,2.736842105263137e-05,0.0,0.0,0.0,8.306732892990112,3.5199999809265137,False,True,False,True,True,False,False,1704.1857724730864,2904120.743360117,1710.094466556687,2925964.2758770664,1801.7636110698577,3248034.2461547097,1633.9153471158616,2669631.584757603,-0.003599684005162841,0.4395841869817035,0.010868982725140712
55,300,0.5499999999999998,0.4773111277091482,0.01188158934197795,0.5947559950417693,-0.0009171043389925877,0.19693715226014172,0.005596441629151496,0.9803997127806539,0.009907367517530316,0.40437659312061563,-0.0031112623239001993,2.288548206430717,-0.01679636060629962,-0.23472070918535431,-0.013996733776750325,-4.029360219644934,-0.08627312632534333,8.319109439849854,0.3920589685440063,0.0188886523246765,0.5689952373504639,,,,,,,,0.6608216312747752,0.6844977844549371,0.7229691918987091,0.6538296285732611,98000.0,99000.0,104200.0,94000.0,8.316613912582397,0.08046414006658059,-0.10016735645456189,0.011162466335642171,-0.4123334058105381,2.524191768340904,-0.010775631988507402,9.415302389369103,8.316613912582397,0.5642626317395085,0.00012473700266650093,0.49982684191703797,0.0,0.0,4.318336050686708e-07,0.9999999999999067,1.456601105263158e-06,1.402386978473882e-18,-9.568369488545757e-19,1.8559784210526318,3.8947368421051965e-05,2.736842105263137e-05,0.0,0.0,0.0,8.306732892990112,3.5199999809265137,False,True,False,True,True,False,False,1720.4739482821556,2959737.394634828,1745.6597848025679,3046820.5012335097,1830.2272558452455,3349485.7958352296,1649.8975735683114,2722369.4388283994,-0.0008813633959781385,0.36519852489725707,0.010924397874730131
56,301,0.5599999999999996,0.500017183539859,0.011622444913283802,0.5922640051736118,-0.0008662885400609824,0.17846624584510384,0.0053803633600209505,0.9839309428655216,0.00918053500163939,0.3645969168626835,-0.0034899922082012405,2.3222150701011017,-0.016529226074396983,-0.24799619528143596,-0.0035352837811403436,-4.137956173446415,-0.08760649339383617,8.329368829727173,0.3920589685440063,0.0188886523246765,0.5689952373504639,,,,,,,,0.6756746380650245,0.7015975005999653,0.7425935185427954,0.6597510476951514,100300.0,102700.0,106400.0,96200.0,8.326080083847046,0.16472756569408004,-0.11485412723556837,0.011689263457133498,-0.3280699801830387,2.197557118621226,0.003394407820101384,9.877185339965367,8.326080083847046,0.6242626317395086,0.00012473700266650093,0.49982684191703797,0.0,0.0,4.3183360506867073e-07,0.9999999999999067,1.456601105263158e-06,1.402386978473882e-18,-9.568369488545757e-19,1.8069784210526316,3.8947368421051965e-05,2.736842105263137e-05,0.0,0.0,0.0,8.32689094543457,3.4679999351501465,False,True,False,True,True,False,False,1740.829011943912,3031239.2038046233,1771.2422237633627,3136601.5288564106,1843.0333019112272,3395402.796741008,1669.0570282980761,2785894.2150118593,-0.0008813633959781385,0.36519852489725707,0.010924397874730131
57,302,0.5699999999999998,0.522724641467848,0.011396872171402289,0.5895706088590282,-0.000883985576176714,0.15945599443439368,0.005286944194123054,0.9871904844707166,0.008734997715237862,0.3243249121309689,-0.003906640554130244,2.3524836300564176,-0.01616341593686051,-0.25990483595366515,0.005787756010083343,-4.217021893033673,-0.08756667289133069,8.329368829727173,0.3920589685440063,0.0188886523246765,0.5689952373504639,,,,,,,,0.7028100429338116,0.7239147899841271,0.7625795316522487,0.6864416906419175,100300.0,102700.0,106400.0,96200.0,8.326080083847046,0.45866127355728575,-0.09571687126867108,0.014334178718476732,-0.034136272319833,1.8055374972768399,-0.0069025871898913405,10.418461616651806,8.326080083847046,0.6242626317395086,0.00012473700266650093,0.49982684191703797,0.0,0.0,4.3183360506867073e-07,0.9999999999999067,1.456601105263158e-06,1.402386978473882e-18,-9.568369488545757e-19,1.8069784210526316,3.8947368421051965e-05,2.736842105263137e-05,0.0,0.0,0.0,8.32689094543457,3.4679999351501465,False,True,False,True,True,False,False,1760.8303437961956,3100656.3682048563,1817.6540846344233,3305934.8893944314,1876.540159439673,3523075.679166748,1688.6559053019132,2851431.404798137,-0.0008813633959781385,0.36519852489725707,0.010924397874730131
58,303,0.5799999999999996,0.545545252675552,0.011198154133504406,0.5866680359011591,-0.0009432704665839942,0.13995368146632953,0.005223862826782071,0.990143822150103,0.008377323989726952,0.28356428214648915,-0.004351292085462592,2.3831883259217803,-0.015823545223777054,-0.2671853049644035,0.0073344133494355574,-4.2641720035611055,-0.08370440953077586,8.34907579421997,0.3920589685440063,0.0188886523246765,0.5689952373504639,,,,,,,,0.730949392965264,0.7547014627937111,0.7895169647630211,0.721378293195856,102400.0,108700.0,111500.0,98400.0,8.346559047698975,0.710389112168182,-0.054207053996342056,0.01671796392286288,0.21759156629106313,1.428052042229997,-0.05785856850616788,10.934369970280951,8.346559047698975,0.6842626317395086,0.00012473700266650093,0.49982684191703797,0.0,0.0,4.318336050686708e-07,0.9999999999999067,1.456601105263158e-06,1.402386978473882e-18,-9.568369488545757e-19,1.7239784210526317,3.8947368421051965e-05,2.736842105263137e-05,0.0,0.0,0.0,8.374290227890015,3.4679999351501465,False,True,False,True,True,False,False,1773.7786627021533,3145423.7347168713,1875.297666409008,3517594.4091981826,1928.3196691473945,3719943.911195444,1707.7087669243413,2916505.0935189705,-0.00364067279060754,0.24356257981201962,0.010992745366607009
59,304,0.5899999999999999,0.5686312563740231,0.01101428201711312,0.5835144080884862,-0.0010237704597564358,0.12008401129159285,0.005112440008617134,0.9927500415932122,0.007949297012884821,0.24247578486181925,-0.004821660145610822,2.413345791792321,-0.015594394467985578,-0.26635903260436694,-0.0031095851258493624,-4.276914336863775,-0.07744797608453499,8.34907579421997,0.3920589685440063,0.0188886523246765,0.5689952373504639,,,,,,,,0.7428613383500666,0.7607717553442319,0.8049079648311176,0.7338660421795968,102400.0,108700.0,111500.0,98400.0,8.346559047698975,0.6786174704727164,-0.0379019247159032,0.0163550732463615,0.18581992459559743,1.1221340619853875,-0.1105301191876265,11.382020108630009,8.346559047698975,0.6842626317395086,0.00012473700266650093,0.49982684191703797,0.0,0.0,4.318336050686708e-07,0.9999999999999067,1.456601105263158e-06,1.402386978473882e-18,-9.568369488545757e-19,1.7239784210526317,3.8947368421051965e-05,2.736842105263137e-05,0.0,0.0,0.0,8.374290227890015,3.4679999351501465,False,True,False,True,True,False,False,1800.5989551963844,3242940.68380332,1905.8500399495776,3631525.548017419,1953.3721017963908,3814366.281399912,1727.7513099125094,2985481.9156856127,-0.00364067279060754,0.24356257981201962,0.010992745366607009
60,305,0.6000000000000001,0.5921315723917323,0.010833767927676376,0.5800359959520378,-0.0011266122514625532,0.09992534157432283,0.004925687174059367,0.9949821076089524,0.007402423511982003,0.20115282454081182,-0.005340041751483171,2.4396883866931223,-0.015506276082024633,-0.2598144351381423,-0.022024454274948434,-4.269067097799377,-0.07162534328503375,8.35931396484375,0.3920589685440063,0.0188886523246765,0.5689952373504639,,,,,,,,0.7451356908139082,0.7428192129768967,0.8075668873158373,0.7440025686803791,105600.0,109100.0,112400.0,101000.0,8.356478929519653,0.4231649408179954,-0.07726676968672332,0.013839610010366647,-0.06963260505912344,0.7799202519618824,-0.11682688904516439,11.852984688990222,8.356478929519653,0.6842626317395086,0.00012473700266650093,0.49982684191703797,0.0,0.0,4.3183360506867073e-07,0.9999999999999067,1.456601105263158e-06,1.402386978473882e-18,-9.568369488545757e-19,1.7239784210526317,3.8947368421051965e-05,2.736842105263137e-05,0.0,0.0,0.0,8.374290227890015,3.4679999351501465,False,True,False,True,True,False,False,1838.738242081817,3381744.3600835064,1911.315968526649,3653861.906993239,1963.7349888241388,3855935.6432112977,1752.6515357277108,3071421.9658335834,-0.0008883235441309638,0.1998271234305605,0.008252382821926096
61,306,0.6099999999999999,0.6161451500124623,0.010648815400325445,0.576156346162313,-0.00126554095988743,0.07940563705391775,0.004694263069086354,0.9968305307846357,0.00680361444206958,0.15940767893257013,-0.005936756722252499,2.460891937232376,-0.015519615766677812,-0.25542022350918253,-0.037019958011577994,-4.270154939792505,-0.06633945915182295,8.369233846664429,0.3920589685440063,0.0188886523246765,0.5689952373504639,,,,,,,,0.7626857651328354,0.7930345312087137,0.8465402202255554,0.7616054088721588,106800.0,111100.0,114900.0,102000.0,8.366554737091064,0.25306361119990595,-0.13714654375929544,0.012453310619043388,-0.2397339346772127,0.3138004819986252,-0.06810285079759204,12.382765347678045,8.366554737091064,0.6842626317395086,0.00012473700266650093,0.49982684191703797,0.0,0.0,4.3183360506867073e-07,0.9999999999999067,1.456601105263158e-06,1.402386978473882e-18,-9.568369488545757e-19,1.7239784210526317,3.8947368421051965e-05,2.736842105263137e-05,0.0,0.0,0.0,8.374290227890015,3.45199990272522,False,True,False,True,True,False,False,1855.1720854153018,3440756.6352197854,1923.5345324320256,3699721.326276378,2002.227716163006,4010603.0801151292,1786.9936783984103,3193331.894823691,-0.0008894149122588591,0.15864752110692773,0.0110241954925423
62,307,0.6200000000000001,0.6406602434949596,0.010455713179140624,0.5718470495293504,-0.0014416895680677683,0.05837727699153916,0.0044831545916462125,0.9982834849816709,0.006283855080958994,0.11690595932639355,-0.0066069698187460404,2.477749626675232,-0.015559575217766174,-0.25685207921008474,-0.03718932166889613,-4.293692873625183,-0.05850129515727606,8.37930965423584,0.3920589685440063,0.0188886523246765,0.5689952373504639,,,,,,,,0.7855978635609411,0.9256294652003645,0.9347728201824296,0.7459691145257694,106000.0,111900.0,117900.0,104500.0,8.376508474349976,0.3666819842492785,-0.1469524723841889,0.01424327453872642,-0.1261155616278402,-0.18228886180089252,-0.011146571885830181,12.910784409030674,8.376508474349976,0.7402626317395086,0.00012473700266650093,0.49982684191703797,0.0,0.0,4.318336050686708e-07,0.9999999999999067,1.456601105263158e-06,1.402386978473882e-18,-9.568369488545757e-19,1.6119784210526318,3.8947368421051965e-05,2.736842105263137e-05,0.0,0.0,0.0,8.398715019226074,3.45199990272522,False,True,False,True,True,False,False,1863.5079327265087,3473085.5139682423,1965.5896353491828,3862738.929382993,2057.935934438903,4234419.623181807,1823.9840158076772,3327597.1006475603,-0.0036545636433002694,0.11733398361344453,0.00827038531879975
63,308,0.6299999999999999,0.6655057094807413,0.010254288023668326,0.5671757849067999,-0.0016277203471075398,0.03683986270257381,0.004353752635787303,0.9993103721469689,0.005960619422855468,0.07360012326534235,-0.007285225674876273,2.49045626427907,-0.015574582296139023,-0.2559785204054129,-0.026962633011865546,-4.313552888358144,-0.047101262443169215,8.389263391494751,0.3920589685440063,0.0188886523246765,0.5689952373504639,,,,,,,,0.8004273567567203,0.9750381606433967,0.982320082956664,0.7351910038873424,109100.0,117200.0,121000.0,106400.0,8.393397569656372,0.64416120813403,-0.08855094070895292,0.017396326205602913,0.15136366225691117,-0.6805395270310065,-0.007463761228104639,13.471755005294703,8.393397569656372,0.7402626317395086,0.00012473700266650093,0.49982684191703797,0.0,0.0,4.318336050686708e-07,0.9999999999999067,1.456601105263158e-06,1.402386978473882e-18,-9.568369488545757e-19,1.6119784210526318,3.8947368421051965e-05,2.736842105263137e-05,0.0,0.0,0.0,8.398715019226074,3.45199990272522,False,True,False,True,True,False,False,1900.1550568696052,3612145.764471448,2042.1320035893275,4171972.797682345,2111.6115132534446,4457481.654065993,1850.1592211139887,3422714.8880784614,-0.0036568442160101696,0.0786828248775487,0.008275546322109405
64,309,0.6399999999999997,0.6903591148781876,0.01004750756256058,0.5623274618549783,-0.0017771535676643674,0.015125228209296548,0.004329986294370078,0.9998746523517357,0.005870962023800132,0.030094157984728427,-0.007867368816998104,2.497361490375924,-0.01556139902989973,-0.23951232115240884,-0.025047000197436355,-4.292680621014718,-0.03827614987491831,8.406152486801147,0.3920589685440063,0.0188886523246765,0.5689952373504639,,,,,,,,0.8268225478276372,0.8850714354723211,0.9406574467809625,0.799052027054974,112400.0,121700.0,124500.0,107100.0,8.403878211975098,0.8420490381892026,-0.0345663227931299,0.018138006223280215,0.34925149231208363,-1.3918438079678865,-0.04786824368265008,14.154883809993972,8.403878211975098,0.7402626317395086,0.00012473700266650093,0.49982684191703797,0.0,0.0,4.3183360506867073e-07,0.9999999999999067,1.456601105263158e-06,1.402386978473882e-18,-9.568369488545757e-19,1.6119784210526318,3.8947368421051965e-05,2.736842105263137e-05,0.0,0.0,0.0,8.398715019226074,3.45199990272522,False,True,False,True,True,False,False,1951.113772118761,3805576.9598972,2121.0439493688873,4498872.7012532875,2175.9637451487906,4736212.240739654,1877.7751572753264,3525410.9855258157,-0.0036582573131051987,0.03443968840098173,0.008278744202515781
65,310,0.6499999999999999,0.7148378110186885,0.00984050292206335,0.5575927607763603,-0.0018508553187653145,-0.006145888063500967,0.004385424451443075,0.9999697847669602,0.005949669552001948,-0.012443212715731466,-0.008265606597019557,2.4968439305651264,-0.01554611976877653,-0.2045014918748866,-0.044252793429754134,-4.237269354544068,-0.041434946301432345,8.416633129119873,0.9712125062942504,0.0181666426360607,0.6078169345855713,,,,,,,,0.8455222437170798,0.838463207858664,0.9101122398107011,0.8559642984385992,113600.0,123200.0,127900.0,111100.0,8.416324138641357,0.8849994497992861,-0.07171936524566101,0.014930790127586881,0.39220190392216714,-2.334218215903254,-0.055569205338194594,14.84658085599349,8.416324138641357,0.7402626317395086,0.00012473700266650093,0.49982684191703797,0.0,0.0,4.3183360506867073e-07,0.9999999999999067,1.456601105263158e-06,1.402386978473882e-18,-9.568369488545757e-19,1.6119784210526318,3.8947368421051965e-05,2.736842105263137e-05,0.0,0.0,0.0,8.398715019226074,3.4040000438690186,False,True,False,True,True,False,False,2000.5449803139682,4002104.249938479,2151.9152006764484,4629789.15603989,2228.1415450174745,4964971.619773243,1935.5003721207368,3747944.2399714496,-0.0036581721615013677,-0.0070665876193385145,0.008278551501924704
66,311,0.6599999999999997,0.7386568664937742,0.009638139910116238,0.5533331083405244,-0.0018413420307336835,-0.02640035496335469,0.00445811752073437,0.9996398130854464,0.006065974743034984,-0.05293955852706772,-0.008460580681238217,2.4898372593152143,-0.015550487301701471,-0.16348215372256725,-0.0738682190141298,-4.198680791761446,-0.05820175373474736,8.429079055786133,0.9712125062942504,0.0181666426360607,0.6078169345855713,,,,,,,,0.8126693941106771,0.9110164668005715,0.9632655265335492,0.8179778681942043,118800.0,121700.0,127100.0,115400.0,8.428303003311157,0.8750134980601953,-0.1875353982033981,0.010451919275432441,0.38221595218307647,-3.03547214799941,-0.0034176831069159686,15.283223426014874,8.428303003311157,0.7902626317395086,0.00012473700266650093,0.49982684191703797,0.0,0.0,4.318336050686708e-07,0.9999999999999067,1.456601105263158e-06,1.402386978473882e-18,-9.568369488545757e-19,1.4779784210526317,3.8947368421051965e-05,2.736842105263137e-05,0.0,0.0,0.0,8.439124822616577,3.4040000438690186,False,True,False,True,True,False,False,2057.3623489729807,4234588.871907744,2129.9983454130156,4537647.561075804,2223.889174790751,4945106.754544671,2008.0448425492757,4031870.9494280503,-0.0036578655947049,-0.051334794347682976,0.011044657781825378
67,312,0.6699999999999999,0.761787118242056,0.009441978911046384,0.5499296511306915,-0.001780643896341918,-0.04556834979767374,0.004480946431973266,0.9989495862770579,0.006095391307599179,-0.09133650064132766,-0.008523903234712419,2.4790117639619957,-0.015570384370242524,-0.1307135692503763,-0.08811582767052112,-4.2068235977801764,-0.0774332141564417,8.441057920455933,0.9712125062942504,0.0181666426360607,0.6078169345855713,,,,,,,,0.7711245673762002,0.9760317277744806,1.0190746707974263,0.7661659860635486,118800.0,121700.0,127100.0,115400.0,8.43638277053833,0.8837708233180761,-0.26742193160829164,0.008921180880358747,0.3909732774409572,-3.2161706204853466,0.052810976956975994,15.38725581793824,8.43638277053833,0.7902626317395086,0.00012473700266650093,0.49982684191703797,0.0,0.0,4.318336050686708e-07,0.9999999999999067,1.456601105263158e-06,1.402386978473882e-18,-9.568369488545757e-19,1.4779784210526317,3.8947368421051965e-05,2.736842105263137e-05,0.0,0.0,0.0,8.439124822616577,3.4040000438690186,False,True,False,True,True,False,False,2087.4316263996097,4356306.73675963,2109.8164616426957,4450407.957592458,2204.6342334853807,4859331.190522622,2031.7644456965304,4126060.5031213844,-0.003653719229993882,-0.12865917031766663,0.008268474386580812
68,313,0.6799999999999997,0.7845139025252106,0.00924853434235863,0.547718837432235,-0.0017308478414988179,-0.0643247047156296,0.004411791975288357,0.9979177684662015,0.0059796992121238565,-0.12906942142857514,-0.008601503888871213,2.464516401197198,-0.015577976872019004,-0.1045271291657384,-0.07457679611792992,-4.2215491786244455,-0.08414535648228065,8.441057920455933,0.9712125062942504,0.0181666426360607,0.6078169345855713,,,,,,,,0.7896603321598299,0.9807195157756169,0.9993141521249647,0.7698335886393792,118800.0,121700.0,127100.0,115400.0,8.43638277053833,0.8500385828328633,-0.2234788997494438,0.010838013480018848,0.35724103695574433,-3.414545419801362,0.07090308662756181,15.353249230156882,8.43638277053833,0.7902626317395086,0.00012473700266650093,0.49982684191703797,0.0,0.0,4.3183360506867073e-07,0.9999999999999067,1.456601105263158e-06,1.402386978473882e-18,-9.568369488545757e-19,1.4779784210526317,3.8947368421051965e-05,2.736842105263137e-05,0.0,0.0,0.0,8.439124822616577,3.4040000438690186,False,True,False,True,True,False,False,2057.504662972786,4233591.13399777,2139.9918518675368,4579861.248774495,2242.9151137152385,5032605.265021515,1987.864682722012,3953549.4119896805,-0.003653719229993882,-0.12865917031766663,0.008268474386580812
69,314,0.69,0.8073271563832563,0.009049580548201305,0.5469236186738755,-0.0017587204961568733,-0.08381431038313403,0.004244944768796246,0.9964707967226766,0.005742531974212957,-0.16852429528452534,-0.008859577552341099,2.441947910784185,-0.015549410957901123,-0.06742282684123921,-0.050654415149072096,-4.179510499383979,-0.07367644478523003,8.449137687683105,0.9712125062942504,0.0181666426360607,0.6078169345855713,,,,,,,,0.8298981015659599,0.9320260186306991,0.93501602569749,0.7961317703034828,115400.0,126100.0,133000.0,110700.0,8.446645736694336,0.6903776443858236,-0.10073119209556114,0.01171580203651385,0.19758009850870467,-4.225141238312975,0.057225184062816,15.38659168225562,8.446645736694336,0.8382626317395085,0.00012473700266650093,0.49982684191703797,0.0,0.0,4.3183360506867073e-07,0.9999999999999067,1.456601105263158e-06,1.402386978473882e-18,-9.568369488545757e-19,1.3179784210526317,3.8947368421051965e-05,2.736842105263137e-05,0.0,0.0,0.0,8.466585874557495,3.414999961853028,False,True,False,True,True,False,False,2031.0615547187736,4126499.00699223,2194.5270281112453,4817041.014289973,2297.96402424444,5282194.409368827,1957.5296083141454,3833395.939301825,-0.003653719229993882,-0.12865917031766663,0.008268474386580812
70,315,0.6999999999999997,0.8306791362840708,0.008833411404554667,0.547600644229682,-0.0019036435109565774,-0.10495191821258595,0.0040088998859790495,0.9944673950042736,0.0054640175267909865,-0.211637292762172,-0.009407057719030052,2.4066746683060503,-0.01550269524348779,-0.00515362450259353,-0.046263493116408864,-4.0891504845564555,-0.05603476647365831,8.472357988357544,0.9712125062942504,0.0181666426360607,0.6078169345855713,,,,,,,,0.8207145523983612,0.7951941599553716,0.873130106791518,0.8427792243247006,119500.0,127100.0,131000.0,115800.0,8.46871280670166,0.45490204864518574,-0.026612219782986085,0.008826322679286298,-0.0378954972319331,-5.337262400701444,0.0244087869124201,15.450670645704726,8.46871280670166,0.8382626317395085,0.00012473700266650093,0.49982684191703797,0.0,0.0,4.318336050686708e-07,0.9999999999999067,1.456601105263158e-06,1.402386978473882e-18,-9.568369488545757e-19,1.3179784210526317,3.8947368421051965e-05,2.736842105263137e-05,0.0,0.0,0.0,8.466585874557495,3.414999961853028,False,True,False,True,True,False,False,2070.950194155003,4289338.938468518,2208.848661430935,4879617.423731888,2289.9222301569093,5244816.7766096,2003.7005887945927,4015667.5667550303,-0.0036444818232765678,-0.21654754279327657,0.008247569862715503
71,316,0.71,0.8547498898899822,0.008585996580356702,0.5496255509350557,-0.002151457783471016,-0.12777772005220692,0.003756577733218807,0.9917933825204724,0.00523741628056962,-0.25859636514423934,-0.010225222523598691,2.3599293391170963,-0.015503357962683808,0.07689762534297259,-0.06866515659924285,-4.051242993895391,-0.04591709645016937,8.481467723846436,0.9712125062942504,0.0181666426360607,0.6078169345855713,,,,,,,,0.7762437696065123,0.6654545031052065,0.8311717874655506,0.8789718568516068,120000.0,123700.0,127100.0,116700.0,8.477012157440186,0.3335407381922404,-0.06595167896408001,0.007818317880041177,-0.15925680768487835,-6.096952320940343,0.0038279699503866067,15.283326668053832,8.477012157440186,0.8382626317395085,0.00012473700266650093,0.49982684191703797,0.0,0.0,4.318336050686708e-07,0.9999999999999067,1.456601105263158e-06,1.402386978473882e-18,-9.568369488545757e-19,1.3179784210526317,3.8947368421051965e-05,2.736842105263137e-05,0.0,0.0,0.0,8.466585874557495,3.414999961853028,False,True,False,True,True,False,False,2110.5179257187156,4452048.571023688,2177.917687980732,4743237.187288301,2238.3768171773636,5009407.677196071,2051.3839095423896,4206182.444443775,-0.003638560190901828,-0.25747863277466676,0.008234169033988615
72,317,0.7199999999999998,0.8793556410521495,0.008292941240595743,0.5527285762053368,-0.0024313449654187946,-0.15134555854360307,0.0035480128108098287,0.9884715585568855,0.005123728522931839,-0.3075980301378187,-0.01114716580953435,2.3083780667251923,-0.015599311537344422,0.15874371728567893,-0.09030388228386825,-4.162446338527359,-0.04900735217424802,8.489767074584961,0.9712125062942504,0.0181666426360607,0.6078169345855713,,,,,,,,0.7302894784573095,0.7036508727373915,0.8322263306881303,0.7920632682916713,120000.0,123700.0,127100.0,116700.0,8.477012157440186,0.4710770264826524,-0.15284754026272296,0.015878137687224455,-0.021720519394466516,-6.515909442312919,0.04140127319920904,14.704956070875948,8.477012157440186,0.8792626317395086,0.00012473700266650093,0.49982684191703797,0.0,0.0,4.3183360506867073e-07,0.9999999999999067,1.456601105263158e-06,1.402386978473882e-18,-9.568369488545757e-19,1.1399784210526316,3.8947368421051965e-05,2.736842105263137e-05,0.0,0.0,0.0,8.506480932235718,3.414999961853028,False,True,False,True,True,False,False,2070.893651970694,4292249.613573029,2143.8416401214254,4595197.834780307,2191.8908030538537,4803600.561607286,2014.2585395379892,4060850.6969678,-0.0036316479579437226,-0.29819405592581955,0.008218526446923087
73,318,0.73,0.9040181586560717,0.007944598565821656,0.5565777946557512,-0.0026480189324124713,-0.17420724265120913,0.003422065106332503,0.9846995044550415,0.005112694350250283,-0.3557921489465161,-0.011921344836124424,2.256472775596263,-0.015721378544861407,0.22605249952002662,-0.07848046666193288,-4.400459373123942,-0.05894269362640484,8.499159336090088,0.9712125062942504,0.0181666426360607,0.6078169345855713,,,,,,,,0.6922167762603166,0.8311299114346757,0.8493032113137439,0.6313248042945548,113200.0,121500.0,123200.0,109500.0,8.496173858642578,0.7653435722255252,-0.17136140096104824,0.025928637142724587,0.2725460263484061,-6.999952742269263,0.10391580753492297,13.870511778335526,8.496173858642578,0.8792626317395086,0.00012473700266650093,0.49982684191703797,0.0,0.0,4.3183360506867073e-07,0.9999999999999067,1.456601105263158e-06,1.402386978473882e-18,-9.568369488545757e-19,1.1399784210526316,3.8947368421051965e-05,2.736842105263137e-05,0.0,0.0,0.0,8.506480932235718,3.489000082015991,False,True,False,True,True,False,False,2001.19450124386,4005675.5326265343,2125.043736280104,4517206.393279508,2161.3459122637323,4673617.728600212,1939.8678839853883,3764000.999046516,-0.006349272850555714,-0.378852202176919,0.005446386182110647
74,319,0.7399999999999998,0.9280956317309177,0.007545730473874331,0.5608926152836085,-0.002742355334606036,-0.19514697847615411,0.003365938231234874,0.9807643992002716,0.005111025931030927,-0.40073564510072474,-0.012354588003984077,2.2011539306810053,-0.015682839741229422,0.28220454643811915,-0.03512814238541683,-4.620488439896419,-0.06655277993564163,8.499159336090088,0.9712125062942504,0.0181666426360607,0.6078169345855713,,,,,,,,0.7009782294403507,0.8312528660660188,0.791439234586794,0.6095936616119355,113200.0,121500.0,123200.0,109500.0,8.496173858642578,0.9180945296287446,-0.08946745348049623,0.01820267566514699,0.42529698375162567,-7.5919236636996885,0.08478052408792677,13.064402945735518,8.496173858642578,0.8792626317395086,0.00012473700266650093,0.49982684191703797,0.0,0.0,4.318336050686708e-07,0.9999999999999067,1.456601105263158e-06,1.402386978473882e-18,-9.568369488545757e-19,1.1399784210526316,3.8947368421051965e-05,2.736842105263137e-05,0.0,0.0,0.0,8.506480932235718,3.489000082015991,False,True,False,True,True,False,False,1963.0558172257402,3850886.154001705,2120.5368731527656,4496838.473605188,2159.583935081657,4663889.502633585,1891.7030772662151,3575837.9226978095,-0.006349272850555714,-0.378852202176919,0.005446386182110647
75,320,0.75,0.9508598600650359,0.007127985537055823,0.56556047810883,-0.002748042267375985,-0.2137469173910078,0.003308795449869045,0.9768796013031541,0.004993610287254887,-0.4415259644944304,-0.012473089967529494,2.1377954086583832,-0.015379598177233198,0.3384057434582162,0.0009876068091596527,-4.679822495321356,-0.06762272381225029,8.508928775787354,0.9712125062942504,0.0181666426360607,0.6078169345855713,,,,,,,,0.7419426929377753,0.6643649808744833,0.6804849009228677,0.7137820367290518,111100.0,120200.0,124500.0,106400.0,8.511351108551025,0.7450561365194717,0.004178120849284362,-0.008599771306331265,0.25225859064235284,-8.03103545738811,-0.02771663822072823,12.381300521741768,8.511351108551025,0.8792626317395086,0.00012473700266650093,0.49982684191703797,0.0,0.0,4.318336050686708e-07,0.9999999999999067,1.456601105263158e-06,1.402386978473882e-18,-9.568369488545757e-19,1.1399784210526316,3.8947368421051965e-05,2.736842105263137e-05,0.0,0.0,0.0,8.506480932235718,3.489000082015991,False,True,False,True,True,False,False,1934.496077309205,3744847.366697004,2105.294911085626,4429383.001278225,2157.033998232003,4650956.143823782,1858.506571811498,3456386.253479821,-0.006330952090240345,-0.4213820877846293,0.00543067069182129
76,321,0.7599999999999998,0.9714938920554375,0.006759416554813821,0.5707243551844402,-0.0028002368248673266,-0.23058262852279857,0.0031635065841891874,0.9730435767854045,0.004729732266024897,-0.479212477653493,-0.012600181883588985,2.071654531755098,-0.015044511854328287,0.3946658791673852,-0.007581168190218562,-4.579084877291678,-0.05939865069404654,8.5241060256958,0.9712125062942504,0.0181666426360607,0.6078169345855713,,,,,,,,0.7199452439812971,0.5095051726091009,0.6552728474883226,0.7447620183372332,109500.0,117400.0,119300.0,106000.0,8.516619205474854,0.38478594568838265,-0.0031640064505553244,-0.013643134854049943,-0.10801160018873612,-8.185583815062747,-0.09979291858190593,11.772085248200192,8.516619205474854,0.9132626317395086,0.00012473700266650093,0.49982684191703797,0.0,0.0,4.3183360506867073e-07,0.9999999999999067,1.456601105263158e-06,1.402386978473882e-18,-9.568369488545757e-19,0.9559784210526315,3.8947368421051965e-05,2.736842105263137e-05,0.0,0.0,0.0,8.527907133102417,3.489000082015991,False,True,False,True,True,False,False,1916.823670384069,3675081.9386350187,2030.8985495409784,4127454.7019135184,2089.809250134867,4371086.437866599,1853.904051650668,3438253.85626702,-0.006308196300486967,-0.4687670439029964,0.008127793149907091
77,322,0.77,0.9890929037382643,0.006542313115096181,0.5767999418035354,-0.0030693357968439063,-0.24707140633465513,0.002907258857649789,0.9689880531748142,0.004522715365646475,-0.5165329211416575,-0.01326038835654915,2.0170784752518345,-0.015153161102841603,0.4368261176015622,-0.0640866465409917,-4.48407906874913,-0.036926999014566704,8.529374122619629,0.9712125062942504,0.0181666426360607,0.6078169345855713,,,,,,,,0.6598491726069456,0.5938883211386723,0.7124752142016544,0.7099852437815908,109500.0,109100.0,114500.0,107100.0,8.5360689163208,0.14606971992352835,-0.13832588262431406,0.049856420136712494,-0.34672782595359053,-8.18550900964208,-0.04044899993785963,11.141842519981164,8.5360689163208,0.9132626317395086,0.00012473700266650093,0.49982684191703797,0.0,0.0,4.3183360506867073e-07,0.9999999999999067,1.456601105263158e-06,1.402386978473882e-18,-9.568369488545757e-19,0.9559784210526315,3.8947368421051965e-05,2.736842105263137e-05,0.0,0.0,0.0,8.527907133102417,3.503999948501587,False,True,False,True,True,False,False,1923.1591149471224,3693713.847528789,1923.7984114490537,3702931.443924673,1999.9183204456735,3998891.54955409,1879.639509938018,3527906.624615838,-0.006286166748357863,-0.5104444793624233,0.008099409181754953
78,323,0.7799999999999998,1.0027803418095012,0.0065920537566036145,0.5843758693751758,-0.0036337947707956336,-0.265036895073328,0.0026502541397897,0.9642277821855415,0.004835032693624213,-0.5570958111880177,-0.014889215858559304,1.9776414981522237,-0.015771728594118038,0.4552363265796184,-0.1398477652778698,-4.582126331161458,-0.005190709674194536,8.539421319961548,0.9712125062942504,0.0181666426360607,0.6078169345855713,,,,,,,,0.6430635443642472,0.8002188931968937,0.7624459964449128,0.6721473125320073,109500.0,109100.0,114500.0,107100.0,8.5360689163208,0.19574799258035147,-0.3329380275650458,0.1623145116074683,-0.2970495532967674,-8.315769933802008,0.061920597648217474,10.360786218677443,8.5360689163208,0.9132626317395086,0.00012473700266650093,0.49982684191703797,0.0,0.0,4.318336050686708e-07,0.9999999999999067,1.456601105263158e-06,1.402386978473882e-18,-9.568369488545757e-19,0.9559784210526315,3.8947368421051965e-05,2.736842105263137e-05,0.0,0.0,0.0,8.527907133102417,3.503999948501587,False,True,False,True,True,False,False,1886.2047698005463,3561829.8370542903,1895.0021432652636,3590789.275429941,1994.0599376597802,3974275.1851420794,1845.9824400388047,3411453.2368014865,-0.006262513415027122,-0.5516753445904499,0.005371964212547741
79,324,0.79,1.0119755782399293,0.006997799799455859,0.5939791879965343,-0.004350101321102008,-0.28602194290909383,0.002632292566800607,0.9582095782389394,0.006198469313882813,-0.6040394688080221,-0.01743957522829199,1.9273657103085395,-0.01590564920912598,0.4620967661202935,-0.18704600254994458,-4.874819449905353,0.004445233042929385,8.548823833465576,0.9712125062942504,0.0181666426360607,0.6078169345855713,,,,,,,,0.5641538225085658,0.6503716207392534,0.8650153698397633,0.5070473879194171,102000.0,113200.0,117900.0,99000.0,8.546197652816772,0.4397425020144469,-0.4870504459783088,0.23622838867867707,-0.053055043862671805,-8.736136608374588,0.08026609278281546,9.474536457155438,8.546197652816772,0.9422626317395085,0.00012473700266650093,0.49982684191703797,0.0,0.0,4.318336050686708e-07,0.9999999999999067,1.456601105263158e-06,1.402386978473882e-18,-9.568369488545757e-19,0.7629784210526316,3.8947368421051965e-05,2.736842105263137e-05,0.0,0.0,0.0,8.56675910949707,3.503999948501587,False,True,False,True,True,False,False,1790.4295849598498,3211598.6460382617,1966.8413034904522,3868204.0619795714,2065.4941275147344,4268293.090606086,1738.1001059577104,3028621.3527497035,-0.006262513415027122,-0.5516753445904499,0.005371964212547741
80,325,0.7999999999999998,1.016725677728755,0.007778216410292918,0.6057678977612219,-0.004800465093171189,-0.31049861441272614,0.0031259009506987173,0.9505565710287384,0.0088470605434438,-0.6584141444146906,-0.02008086259080856,1.822303590030049,-0.013911591533991205,0.48367534153436315,-0.13488948160494368,-5.103565115908575,-0.05212535663367775,8.570250034332275,0.9962830543518066,0.0183687433600425,0.6182372570037842,,,,,,,,0.37140630760507365,0.22876238872429316,1.009550005961404,0.23748414516705058,97100.0,113200.0,123200.0,93500.0,8.566281795501709,0.6612999929168508,-0.5259863717943938,0.2209809700783661,0.16850244703973216,-9.261302773247625,0.04697161892216763,8.69259995154799,8.566281795501709,0.9422626317395085,0.00012473700266650093,0.49982684191703797,0.0,0.0,4.3183360506867073e-07,0.9999999999999067,1.456601105263158e-06,1.402386978473882e-18,-9.568369488545757e-19,0.7629784210526316,3.8947368421051965e-05,2.736842105263137e-05,0.0,0.0,0.0,8.56675910949707,3.578000068664551,False,True,False,True,True,False,False,1717.270687504491,2942631.4047709117,2006.8227068840074,4021675.5843189545,2133.249072800625,4551104.358178997,1655.231813688647,2732283.334057803,-0.008982418229259754,-0.6450192674437045,0.005385716396775745
81,326,0.8099999999999996,1.017919764179378,0.008854367126153062,0.619298979080799,-0.004377975921912059,-0.3373498216471226,0.004284794661524685,0.9413594274750693,0.012362702246187025,-0.7180103121708543,-0.021208815850510456,1.6420446771032249,-0.009123475945222214,0.5328068421604693,0.09848479741185706,-4.917932362121656,-0.18318444825995442,8.570250034332275,0.9962830543518066,0.0183687433600425,0.6182372570037842,,,,,,,,0.31572282036687804,0.24852322153565382,0.9589199676872271,0.10600383631765506,97100.0,113200.0,123200.0,93500.0,8.566281795501709,0.7260105544810163,-0.4333200342751929,0.17991320070570122,0.2332130086038975,-9.562598741429841,0.0701294603768087,7.962396413861372,8.566281795501709,0.9422626317395085,0.00012473700266650093,0.49982684191703797,0.0,0.0,4.3183360506867073e-07,0.9999999999999067,1.456601105263158e-06,1.402386978473882e-18,-9.568369488545757e-19,0.7629784210526316,3.8947368421051965e-05,2.736842105263137e-05,0.0,0.0,0.0,8.56675910949707,3.578000068664551,False,True,False,True,True,False,False,1655.653656652879,2742776.567307775,1925.9397719074163,3717567.3639503764,2175.3415339958447,4731239.921214897,1585.4265047664692,2514172.4146759165,-0.008982418229259754,-0.6450192674437045,0.005385716396775745
82,327,0.8199999999999998,1.0172055900323271,0.0100590065453324,0.6335311242207432,-0.002502076399725996,-0.3640254394474085,0.006011882316760871,0.9313662417759302,0.015556462586671076,-0.7774921844383805,-0.01886528263931362,1.4193109794709944,-0.003092966562583733,0.5921066008941097,0.5340434038723859,-4.159783565611005,-0.33443651437880945,8.589050769805908,1.0079500675201416,0.0182656571269035,0.6230395436286926,,,,,,,,0.5390161339937762,0.6337567448747321,0.683780287725574,0.14590757052583436,88500.0,101700.0,126100.0,80400.0,8.586666345596313,0.6651622963529411,-0.2591208330319052,0.21298215663311942,0.1723647504758222,-9.4893564974697,0.09477403100952161,7.031196153894561,8.586666345596313,0.9652626317395085,0.00012473700266650093,0.49982684191703797,0.0,0.0,4.318336050686708e-07,0.9999999999999067,1.456601105263158e-06,1.402386978473882e-18,-9.568369488545757e-19,0.5719784210526315,3.8947368421051965e-05,2.736842105263137e-05,0.0,0.0,0.0,8.609143733978271,3.578000068664551,False,True,False,True,True,False,False,1566.9814658287435,2461118.412854012,1824.377081813967,3333975.4144377103,2177.231993784799,4739523.025545536,1443.2667503581074,2097827.7206829973,-0.006333347855185248,-0.7733856711049983,0.016342621330124003
83,328,0.8299999999999996,1.0165629621822265,0.011184370447092173,0.6471107497930113,0.001124089601046868,-0.38742598904981557,0.007907136741467768,0.9218662140570576,0.01667729090349884,-0.8300890945137795,-0.011437975350799027,1.2189836986137637,0.0012415885860265238,0.6283476773028457,1.0479972306982426,-2.9982369195877228,-0.4427042872768481,8.599421262741089,1.0184810161590576,0.0181534700095653,0.6278306841850281,,,,,,,,0.7937024880085406,0.6061487957418725,0.5393740175345032,0.17906481910114375,89000.0,104900.0,118600.0,74400.0,8.596347093582153,0.5847276791977958,-0.07940841240562505,0.3154334363113891,0.09193013332067695,-9.064884926377292,-0.050962748866927185,6.017777329786734,8.596347093582153,0.9652626317395085,0.00012473700266650093,0.49982684191703797,0.0,0.0,4.318336050686708e-07,0.9999999999999067,1.456601105263158e-06,1.402386978473882e-18,-9.568369488545757e-19,0.5719784210526315,3.8947368421051965e-05,2.736842105263137e-05,0.0,0.0,0.0,8.609143733978271,3.578000068664551,False,True,False,True,True,False,False,1559.2207128749105,2431030.8957260894,1805.388655810818,3257082.3956991695,2084.7530529224573,4353350.262728339,1283.1898496239007,1640490.3992193334,-0.0008809123461872652,-0.811155721536064,0.016389353522912268
84,329,0.8399999999999999,1.0176992590327996,0.01204840610432145,0.6588164551563559,0.006344442671755355,-0.405071394194955,0.00931283218185892,0.9142156117726783,0.01384601295853559,-0.8700916193691567,0.0016930761285262512,1.0845133445558703,0.0018235623907443975,0.6227680916996278,1.3940411247897988,-1.7951548300768483,-0.5301962272970999,8.609102010726929,1.0284608602523804,0.018087038770318,0.6323472261428833,,,,,,,,0.884354209156679,0.22594940096568042,0.7440901070084466,0.151081733734229,98000.0,102700.0,111500.0,68800.0,8.608022928237915,0.5266751435667267,0.07053221348147938,0.365563775294939,0.03387759768960787,-8.412181981995904,-0.3691700083865201,5.36773171142469,8.608022928237915,0.9652626317395085,0.00012473700266650093,0.49982684191703797,0.0,0.0,4.3183360506867073e-07,0.9999999999999067,1.456601105263158e-06,1.402386978473882e-18,-9.568369488545757e-19,0.5719784210526315,3.8947368421051965e-05,2.736842105263137e-05,0.0,0.0,0.0,8.609143733978271,3.578000068664551,False,True,False,True,True,False,False,1696.496402190599,2881979.012194639,1789.7077935919533,3203286.8070832063,1942.1138579551957,3766225.1349641257,1193.5012011860686,1414899.412836043,0.010081195145387332,-0.8375190443307078,0.016423590474641234
85,330,0.8500000000000001,1.0215547643634124,0.012548538729078674,0.6679367316350119,0.012567255893557627,-0.41592647070560734,0.009447621110579573,0.9092623260099553,0.005527032668717524,-0.8948345701368148,0.019911329027315763,1.0088598250770486,-0.0011596639535907452,0.58442187527168,1.3597030427116454,-0.8463070297244051,-0.7147397701708871,8.62077784538269,1.037757396697998,0.0178941041231155,0.6365016102790833,,,,,,,,0.9056646992419122,0.07930151736825233,1.0075046515571615,0.18194745270911533,106800.0,95500.0,110700.0,63700.0,8.616050243377686,0.47002287680944416,0.2118823194042626,0.26223837609514566,-0.02277466906767471,-7.826976117216579,-0.6571068560836199,5.257942475342219,8.616050243377686,0.9652626317395085,0.00012473700266650093,0.49982684191703797,0.0,0.0,4.3183360506867073e-07,0.9999999999999067,1.456601105263158e-06,1.402386978473882e-18,-9.568369488545757e-19,0.5719784210526315,3.8947368421051965e-05,2.736842105263137e-05,0.0,0.0,0.0,8.609143733978271,3.503999948501587,False,True,False,True,True,False,False,1862.3061582060227,3462556.2989298077,1679.2037246087355,2825244.481911089,1920.6551401135785,3683878.359992249,1133.280501336044,1296079.0764068954,0.02656620794232876,-0.8552234337394303,0.016447793331775793
86,331,0.8599999999999999,1.028132085173386,0.012680840335703238,0.6744112530809651,0.01897802691120371,-0.4205404859997732,0.007621628174348379,0.907043243133206,-0.009073984537551616,-0.9052385901133152,0.04164919458925192,0.9545398829293017,-0.005921793592153832,0.5360005378987466,0.9295120054144502,-0.23225437216253544,-1.0844495996883787,8.628805160522461,1.0463485717773438,0.017838004976511,0.6401428580284119,,,,,,,,0.8401095765947979,0.13980680462340878,0.8937853950271055,0.4040969918911971,111500.0,87200.0,116300.0,63200.0,8.626530408859253,0.44542841786197473,0.3655206321586224,0.03799195185805658,-0.047369128015144174,-7.634202096500383,-0.763547863312863,5.459016445468487,8.626530408859253,0.9812626317395086,0.00012473700266650093,0.49982684191703797,0.0,0.0,4.318336050686708e-07,0.9999999999999067,1.456601105263158e-06,1.402386978473882e-18,-9.568369488545757e-19,0.3969784210526316,3.8947368421051965e-05,2.736842105263137e-05,0.0,0.0,0.0,8.636754274368286,3.503999948501587,False,True,False,True,True,False,False,1964.257189053154,3858305.9392210436,1519.5297850189047,2303891.996051883,2060.6108174004225,4257270.45939681,1073.756087231554,1153417.820351108,0.043060386507270926,-0.8611939626193315,0.016456974171133055
87,332,0.8700000000000001,1.0366689212483562,0.012522379840130965,0.6787182076389817,0.024855945182978623,-0.4206063465937765,0.003506113168790185,0.906895909332788,-0.02970197266394527,-0.9049508210985595,0.06501503071428888,0.8911027425563353,-0.010648586281562358,0.4922424430750706,0.3133597415156024,0.12464314941620372,-1.5568429332886624,8.639285326004028,1.0542553663253784,0.0176990628242492,0.6436783671379089,,,,,,,,0.5623149453966795,0.21902535124807837,0.4449619908177246,0.7598807420811391,115400.0,80200.0,125300.0,62900.0,8.638731718063354,0.5402738648167772,0.49557909985136384,-0.18060452657274773,0.04747631893965834,-7.803322503115312,-0.706506592307204,5.668881560072849,8.638731718063354,0.9812626317395086,0.00012473700266650093,0.49982684191703797,0.0,0.0,4.318336050686708e-07,0.9999999999999067,1.456601105263158e-06,1.402386978473882e-18,-9.568369488545757e-19,0.3969784210526316,3.8947368421051965e-05,2.736842105263137e-05,0.0,0.0,0.0,8.636754274368286,3.503999948501587,False,True,False,True,True,False,False,1995.2166501461998,3982960.835772348,1389.8215956699655,1926518.9692981425,2147.1467148918973,4603696.985441359,1126.6725747886169,1256314.6649425887,0.05406266279624526,-0.8641969137300264,0.01096711118330343
88,333,0.8799999999999999,1.0460149056208266,0.01219075192842924,0.6816123505887085,0.02983945423967944,-0.4182912195295738,-0.0026331767385249253,0.9078188855798296,-0.0548832215937668,-0.8988440000819095,0.08839990125821585,0.8115216443960775,-0.014533334181681465,0.45294561795758614,-0.16941446197067844,0.28953415842063324,-1.8915225659723403,8.65148663520813,1.0618256330490112,0.0174656044691801,0.6466132998466492,,,,,,,,0.3283330421297308,0.4102483008537994,0.1317293636197627,1.0044838031282317,109900.0,75000.0,114100.0,80000.0,8.646457195281982,0.7532852477594938,0.5206154978787763,-0.2964276328765628,0.260487701882375,-7.948317855877097,-0.5669037273722116,5.742547466558508,8.646457195281982,0.9812626317395086,0.00012473700266650093,0.49982684191703797,0.0,0.0,4.3183360506867073e-07,0.9999999999999067,1.456601105263158e-06,1.402386978473882e-18,-9.568369488545757e-19,0.3969784210526316,3.8947368421051965e-05,2.736842105263137e-05,0.0,0.0,0.0,8.636754274368286,3.503999948501587,False,True,False,True,True,False,False,1928.2403117167994,3717945.9240221223,1318.5847464437286,1747342.8113737388,2020.8081759393165,4096348.9995010057,1375.100392926382,1907023.5057391576,0.06229227963127153,-0.8612767219877504,-2.237895728892255e-05
89,334,0.8899999999999997,1.0550305696270963,0.011800373841866784,0.6838473713272423,0.034002710422949,-0.4156647770028685,-0.009882728889095208,0.908828333907319,-0.08205166232501943,-0.8916858050716753,0.11078207621827872,0.7242620130580953,-0.01782382888386148,0.4119148532399383,-0.25978179347038105,0.20819508071227374,-1.8698743465632601,8.659212112426758,1.0682677030563354,0.0173604898154735,0.6492269039154053,,,,,,,,0.44964101840497733,0.6460464484903632,0.13683573108620642,0.9959899069327653,103100.0,75800.0,104500.0,96200.0,8.656584978103638,0.926377342378657,0.3808109688486033,-0.3038155460619767,0.4335797965015382,-7.836765027616925,-0.4305079816477543,5.73400139611511,8.656584978103638,0.9912626317395086,0.00012473700266650093,0.49982684191703797,0.0,0.0,4.3183360506867073e-07,0.9999999999999067,1.456601105263158e-06,1.402386978473882e-18,-9.568369488545757e-19,0.23897842105263156,3.8947368421051965e-05,2.736842105263137e-05,0.0,0.0,0.0,8.676538944244385,3.49399995803833,False,True,False,True,True,False,False,1793.446072917392,3218325.593756079,1326.4477915139869,1762556.090799981,1809.9055168693058,3275778.5132751837,1694.3780196007585,2873752.066544411,0.07052049633053457,-0.8583807923695868,-0.01924679190715235
90,335,0.8999999999999999,1.0628754983858781,0.01143178440538923,0.6859760347158627,0.03770148929909896,-0.414379928851908,-0.016907258517016775,0.9091655607636908,-0.10810409673368739,-0.8873802514138556,0.13167180848750293,0.6405643050100053,-0.021184511278173508,0.36816268848078737,0.09942062222549608,-0.23023883564677075,-1.469793842276562,8.669339895248413,1.0744322538375854,0.0171193480491638,0.6514998078346252,,,,,,,,0.6429544754158176,0.8022258197520575,0.17791565699435982,0.7817956962670431,97700.0,83300.0,94600.0,108700.0,8.66634225845337,0.8808041805069982,0.10164260094799193,-0.2529574904795895,0.38800663462987917,-7.644001287059711,-0.40385899786464907,5.791155679781893,8.66634225845337,0.9912626317395086,0.00012473700266650093,0.49982684191703797,0.0,0.0,4.318336050686708e-07,0.9999999999999067,1.456601105263158e-06,1.402386978473882e-18,-9.568369488545757e-19,0.23897842105263156,3.8947368421051965e-05,2.736842105263137e-05,0.0,0.0,0.0,8.676538944244385,3.49399995803833,False,True,False,True,True,False,False,1713.0678021617045,2934734.024121695,1437.6087396393837,2054558.5795704315,1658.8142257172535,2738943.9419863806,1881.006071095544,3525314.6860894943,0.07601996224022622,-0.8584573177385311,-0.03847463779055957
91,336,0.9099999999999997,1.0691332901902453,0.011121657373985622,0.6882630858646233,0.041271728703650895,-0.41557835892416084,-0.02240510113050161,0.9083442538195777,-0.13027978237013357,-0.8887218695125055,0.1508202139153009,0.5683057017028562,-0.02494945752656363,0.32750799984643447,0.703854312620608,-1.0256744383214151,-0.8661015257840066,8.679097175598145,1.079391360282898,0.0169405806809663,0.6532412767410278,,,,,,,,0.5325709146829711,0.9456745239626856,0.12320697445710402,0.48569757217466675,98400.0,94000.0,86700.0,106800.0,8.677743911743164,0.6047999501826662,-0.20409130489414734,-0.19154046929162388,0.11200240430554721,-7.594287800212994,-0.5428603331503328,5.881905064308722,8.677743911743164,0.9912626317395086,0.00012473700266650093,0.49982684191703797,0.0,0.0,4.318336050686708e-07,0.9999999999999067,1.456601105263158e-06,1.402386978473882e-18,-9.568369488545757e-19,0.23897842105263156,3.8947368421051965e-05,2.736842105263137e-05,0.0,0.0,0.0,8.676538944244385,3.49399995803833,False,True,False,True,True,False,False,1708.0098787076845,2914083.7185971676,1653.5886873979143,2735877.2778745657,1514.5507591315634,2299256.191532402,1880.5518116591943,3542685.8526509427,0.08152156054009925,-0.8585459863134641,-0.05221298128987014
92,337,0.9199999999999999,1.0737877318924032,0.01087128179572206,0.6907002027070094,0.04474456172924708,-0.4198900592372783,-0.02558978446822735,0.9061100514177306,-0.14698245851345304,-0.8973600933082203,0.16787561717581811,0.5089052231408239,-0.028936758593492408,0.294136802749836,1.1619794418340337,-1.9683105684686288,-0.27728682848713115,8.69049882888794,1.0827232599258425,0.0166093148291111,0.6547118425369263,,,,,,,,0.30092898875723567,0.9893934029740334,0.1816837156270809,0.33537370948204437,94000.0,108300.0,80600.0,102400.0,8.691931009292603,0.28532504905618206,-0.4123518501751826,-0.14387984341837415,-0.20747249682093688,-7.645373366924948,-0.770676962588351,5.7099461224692085,8.691931009292603,0.9972626317395086,0.00012473700266650093,0.49982684191703797,0.0,0.0,4.3183360506867073e-07,0.9999999999999067,1.456601105263158e-06,1.402386978473882e-18,-9.568369488545757e-19,0.11197842105263159,3.8947368421051965e-05,2.736842105263137e-05,0.0,0.0,0.0,8.716775894165039,3.49399995803833,False,True,False,True,True,False,False,1653.5561715513568,2734240.7610584917,1900.308985058432,3621419.610091287,1375.7073527382695,1893254.1025521022,1777.371904145637,3161630.519692821,0.08985835520869032,-0.8704650935482071,-0.05501874004522203
93,338,0.9299999999999997,1.0771004615779973,0.010664198472970825,0.6930865562498607,0.04773365190941145,-0.42740757313647904,-0.026459857132039497,0.902410184373785,-0.15811709563444815,-0.9137037191710022,0.18214946344278724,0.45428863073581793,-0.03301351069669014,0.2623460285009972,1.1094372707467899,-2.7168770527914656,0.1698757305252566,8.704685926437378,1.0855189561843872,0.0162760205566883,0.6557548642158508,,,,,,,,0.2142614251335141,0.7680346463253678,0.4202409940318075,0.4733566324925692,87700.0,119300.0,75000.0,95200.0,8.696261882781982,0.143874287447072,-0.480728934948094,-0.11817848370024195,-0.3489232584300468,-7.663883456406321,-0.9435605157625675,5.113754313916189,8.696261882781982,0.9972626317395086,0.00012473700266650093,0.49982684191703797,0.0,0.0,4.3183360506867073e-07,0.9999999999999067,1.456601105263158e-06,1.402386978473882e-18,-9.568369488545757e-19,0.11197842105263159,3.8947368421051965e-05,2.736842105263137e-05,0.0,0.0,0.0,8.716775894165039,3.5409998893737797,False,True,False,True,True,False,False,1505.916626024718,2274786.5095329396,2044.9943554086967,4180840.0893549267,1376.3188556760879,1904176.2106915102,1661.2897706446458,2755857.7245174004,0.10101947206921458,-0.8883873069279147,-0.05235279569480372
