,Unnamed: 0,t,x,y,z,qx,qy,qz,qw,yaw,pitch,roll,vx,vy,vz,wx,wy,wz,ros_timestamp,x_poses,y_poses,z_poses,qx_poses,qy_poses,qz_poses,qw_poses,yaw_poses,pitch_poses,roll_poses,m1_thrust,m2_thrust,m3_thrust,m4_thrust,m1_erpm,m2_erpm,m3_erpm,m4_erpm,ros_timestamp_motors,thrust,torque_roll,torque_pitch,torque_yaw,ax,ay,az,ros_timestamp_image_accel,x_r,y_r,z_r,qx_r,qy_r,qz_r,qw_r,yaw_r,pitch_r,roll_r,vx_r,vy_r,vz_r,wx_r,wy_r,wz_r,ros_timestamp_r,Vbat,can_be_armed,is_armed,auto_arm,can_fly,is_flying,is_tumbled,is_locked,m1_rads,m1_rads2,m2_rads,m2_rads2,m3_rads,m3_rads2,m4_rads,m4_rads2,ax_body,ay_body,az_body,lag_samples,lag_seconds,rx,ry,rz
0,239,5.684825782629363e-16,0.006725644269241651,0.034100253538542465,0.5797502796181538,-0.0029762295467811984,-0.0015635692639332168,-0.0022317553628005836,0.9999918582552773,-0.011355890468406314,-0.0018813112660022106,-0.010149795267083716,-0.017599628885556846,0.005632327604664773,0.021977594684005022,0.05740104366649893,-0.004584448482144899,-0.0269002514128553,18.857027053833008,0.0046727340668439,0.0385377816855907,0.5618120431900024,,,,,,,,0.6055824645296324,0.5812344785589754,0.6271677493885776,0.6175994671594753,96800.0,95500.0,98000.0,94600.0,18.86169934272766,0.3642957198235216,0.011976722060273098,0.0005016811191134373,-0.12832584937580765,0.09521978820073722,-0.10197932572196328,9.553306744475758,18.86169934272766,0.0010236843710875537,-0.00024105247101770998,0.49935105244335376,0.0,0.0,0.0,1.0,0.0,1.402386978473882e-18,-9.568369488545757e-19,-0.002488421052631579,0.0011257894736842117,0.00705578947368421,0.0,0.0,0.0,18.86616539955139,3.7260000705718994,False,True,False,True,True,False,False,1689.4699246648138,2854306.291175502,1666.7910082664841,2778191.9378065863,1710.4763313788774,2925743.117171445,1651.1098321733402,2726172.064281405,0.09468076222406319,-0.1287009308797606,9.552870762224066,0,0.0,-0.005952958049265237,-0.0032813627720753727,-0.004468430882415534
1,240,0.010000000000000356,0.006738807660764126,0.03408792746481577,0.5785718556366996,-0.003201370502102799,-0.0012436082101206182,-0.002220231076075845,0.9999916375847835,-0.011330638215089648,-0.001243016729059399,-0.010600906544229679,-0.0174676131431422,0.005594066818028419,0.01226479320516325,0.02505545942088021,-0.015630540256230868,-0.01911479654996378,18.857027053833008,0.0046727340668439,0.0385377816855907,0.5618120431900024,,,,,,,,0.6097567828759876,0.5282446878124729,0.6230615559488024,0.6708176991136187,96800.0,95500.0,98000.0,94600.0,18.86169934272766,0.5706950578110397,-0.017531936138402697,0.0007051774999119097,0.07807348861171037,0.11548123279341214,-0.11239075364719106,9.505772073105216,18.86169934272766,0.0010236843710875537,-0.00024105247101770998,0.49935105244335376,0.0,0.0,0.0,1.0,0.0,1.402386978473882e-18,-9.568369488545757e-19,-0.002488421052631579,0.0011257894736842117,0.00705578947368421,0.0,0.0,0.0,18.86616539955139,3.7260000705718994,False,True,False,True,True,False,False,1678.7248029471962,2818672.5786156245,1688.1912538906013,2853973.0149101308,1724.3569974983393,2974160.0044604037,1659.9961884030279,2756586.334464634,0.09468076222406319,-0.1287009308797606,9.552870762224066,0,0.0,-0.005952958049265237,-0.0032813627720753727,-0.004468430882415534
2,241,0.020000000000000587,0.006748925707201475,0.03408281418445221,0.5776716832231985,-0.003281363679084276,-0.001038489230994684,-0.0022072687460778003,0.9999916410436666,-0.011303145140025936,-0.000834896970176368,-0.010760938590534187,-0.01726355649657525,0.005577120133835802,0.008127194235747325,0.0072334542516165005,0.01103349434049394,-0.01176921542422674,18.87629199028015,0.0046530188992619,0.0385277196764946,0.5618569254875183,,,,,,,,0.5999028257185516,0.5118303019661843,0.6124633404769682,0.6723823635256942,95800.0,96800.0,98700.0,96800.0,18.870307445526123,0.6949289382095007,-0.01719998757254218,0.001405861196659845,0.20230736901017163,0.11105702845223445,-0.09143320535481034,9.59900679123317,18.870307445526123,0.0010236843710875537,-0.00024105247101770998,0.49935105244335376,0.0,0.0,0.0,1.0,0.0,1.402386978473882e-18,-9.568369488545757e-19,-0.002488421052631579,0.0011257894736842117,0.00705578947368421,0.0,0.0,0.0,18.86616539955139,3.7260000705718994,False,True,False,True,True,False,False,1673.6714724695723,2801345.6396214804,1680.9232267454493,2828110.867325958,1731.5309089834664,2998530.8915857673,1682.2387682586636,2830516.224309089,0.14071664061997594,-0.11577298638367187,9.532906640619977,0,0.0,-0.005952958049265237,-0.0032813627720753727,-0.004468430882415534
3,242,0.030000000000000374,0.006753602656804074,0.03408926672289339,0.5772106335376216,-0.003078773936158049,-0.0010444461903598645,-0.0021960994780176667,0.9999923036855275,-0.011279711782802735,-0.0008486886884608445,-0.010354163216536951,-0.017009140087713193,0.005618366163429226,0.011668188623619706,0.0345367110070607,0.0667611680787345,-0.007656387342430926,18.884900093078613,0.0046392260119318,0.038467664271593,0.5618627667427063,,,,,,,,0.555608485306394,0.5705327175065364,0.618866840569161,0.5922415137372185,95200.0,95200.0,100700.0,97100.0,18.878703355789185,0.6838009549709715,0.02279196330913133,0.0030334338510824427,0.19117938577164253,0.12292828538220266,-0.03729972064587187,9.736161082659105,18.878703355789185,0.0010236843710875537,-0.00024105247101770998,0.49935105244335376,0.0,0.0,0.0,1.0,0.0,1.402386978473882e-18,-9.568369488545757e-19,0.030511578947368424,0.0011257894736842117,0.00705578947368421,0.0,0.0,0.0,18.88657307624817,3.7260000705718994,False,True,False,True,True,False,False,1673.075788947248,2798497.8407983445,1648.1957911955578,2711167.7763199494,1730.5296284924375,2994179.3165548365,1707.911900341023,2915076.5189368213,0.12079341165225822,-0.08829349759150068,9.74098341165226,0,0.0,-0.005952958049265237,-0.0032813627720753727,-0.004468430882415534
4,243,0.040000000000000605,0.006751587137706016,0.03410708406506547,0.5771869795100382,-0.002488241985196029,-0.0013681617999855432,-0.0021970505882768347,0.9999935548561425,-0.011282521404757958,-0.0014972436093789669,-0.00917074884530042,-0.01677744862308832,0.005740714589123762,0.019452770797830227,0.13748538508897498,0.08570032209473778,-0.01133757669188928,18.893296003341675,0.0046005146577954,0.0384363234043121,0.5617607831954956,,,,,,,,0.48373238463418183,0.6906628668757461,0.6599249909466889,0.4650158531719786,95200.0,94900.0,100000.0,98000.0,18.888407468795776,0.5488200565850323,0.06131873381964339,0.004833208021243289,0.05619848738570335,0.1693764266924817,-0.005137505625349814,9.730841107371495,18.888407468795776,0.0010236843710875537,-0.00024105247101770998,0.49935105244335376,0.0,0.0,0.0,1.0,0.0,1.402386978473882e-18,-9.568369488545757e-19,0.030511578947368424,0.0011257894736842117,0.00705578947368421,0.0,0.0,0.0,18.896915435791016,3.7260000705718994,False,True,False,True,True,False,False,1666.0840538985842,2775279.781576525,1634.415587733009,2661342.686218957,1732.3790962356659,3001023.3456823695,1707.3524458449535,2913302.5695379507,0.14300073557677365,-0.01346842679907373,9.782190735576776,0,0.0,-0.005952958049265237,-0.0032813627720753727,-0.004468430882415534
5,244,0.05000000000000039,0.0067428731639665165,0.03413046667278969,0.5774552387828648,-0.0014675882569952202,-0.0020238688355632924,-0.0022221641772606254,0.9999944060473607,-0.011337751360456576,-0.0028089563107553672,-0.007128582703849988,-0.016550458892425478,0.005899450045522314,0.02453828209715509,0.308790469141705,0.0017939289603383472,-0.024335039816875022,18.903000116348267,0.0044892104342579,0.0383238941431045,0.5617963075637817,,,,,,,,0.44162520946879885,0.7760580307936636,0.6994064631632411,0.39045886302694816,95500.0,94300.0,97400.0,96500.0,18.89911103248596,0.36496997179462637,0.01490867802748414,0.004421372594431836,-0.12765159740470272,0.14567036300412683,-0.060047046652446354,9.65104844402039,18.89911103248596,0.0010236843710875537,-0.00024105247101770998,0.49935105244335376,0.0,0.0,0.0,1.0,0.0,1.402386978473882e-18,-9.568369488545757e-19,0.030511578947368424,0.0011257894736842117,0.00705578947368421,0.0,0.0,0.0,18.896915435791016,3.7260000705718994,False,True,False,True,True,False,False,1641.9188154394703,2696878.032824991,1689.7095055366385,2860202.1836903244,1753.9884833193355,3079049.4754029494,1662.3960804878848,2766742.54998142,0.1148418098936344,-0.05731804864398592,9.69219,0,0.0,-0.003185903049909996,-0.0032811502190942163,-0.004468141436118028
6,245,0.06000000000000062,0.00672938725203236,0.03414823318524693,0.5778034331176229,-6.0436298515944415e-05,-0.002785449447200792,-0.0022742046931532884,0.9999935327850099,-0.011450860600275736,-0.004332172132803637,-0.004317144834014582,-0.016234682479746028,0.00599257529827049,0.022176465061189587,0.48641165866616387,-0.14513059275995932,-0.03914839546754047,18.91370368003845,0.0045187044888734,0.038225382566452,0.561754584312439,,,,,,,,0.4841006677197348,0.7337240622135739,0.6813815816270008,0.4440380746841511,91700.0,102000.0,104200.0,90900.0,18.90945339202881,0.2149844363824518,-0.15549164277596378,6.398779475045072e-06,-0.27763713281687735,-0.03653856501843892,-0.18578201565376048,9.757645162889371,18.90945339202881,0.0010236843710875537,-0.00024105247101770998,0.49935105244335376,0.0,0.0,0.0,1.0,0.0,1.402386978473882e-18,-9.568369488545757e-19,0.030511578947368424,0.0011257894736842117,0.00705578947368421,0.0,0.0,0.0,18.896915435791016,3.7260000705718994,False,True,False,True,True,False,False,1606.4692713904965,2582168.5966567174,1809.6270413695456,3294051.1251384933,1795.615143327869,3228202.2700671772,1593.7644060567134,2543721.1441666884,0.08951876503407825,-0.16077010422478102,9.567671234965925,0,0.0,-0.00041921433653051396,-0.0032809989962448117,-0.004467935506783986
7,246,0.07000000000000041,0.0067162198581928526,0.034145755085306186,0.5780417179583598,0.0016060220387394016,-0.0030817648809078144,-0.002335091202050616,0.9999912353453445,-0.011580264205129077,-0.004926168144714179,-0.0009908713372165428,-0.015836298372085805,0.005928899446014736,0.013918653518767293,0.5823923943342512,-0.15884343862785497,-0.04020043344052034,18.9240460395813,0.0047995802015066,0.0381129384040832,0.5616047382354736,,,,,,,,0.5883424864022084,0.58884563508744,0.6121103433554933,0.5897078798593332,90100.0,113200.0,106000.0,88200.0,18.928282260894772,0.13280949506816425,-0.36515523375420034,-0.006647429204802655,-0.359812074131165,-0.2424166211011734,-0.2961334395642775,10.059586212431466,18.928282260894772,0.0030236843710875535,-0.00024105247101770998,0.49935105244335376,0.0,0.0,0.0,1.0,0.0,1.402386978473882e-18,-9.568369488545757e-19,0.11551157894736841,0.0011257894736842117,0.00705578947368421,0.0,0.0,0.0,18.92882442474365,3.700000047683716,False,True,False,True,True,False,False,1582.8822918876886,2505828.7886086684,1920.8088384316277,3697074.2471381235,1833.7388208089992,3363989.5880650496,1549.6820999533784,2400801.1298063975,-0.3317612337174511,-0.23211026309024296,10.235473701088312,0,0.0,0.005114341505818884,-0.0032813020277111045,-0.004468348163127213
8,247,0.08000000000000064,0.006713061970109518,0.03410865417243786,0.5780583120035031,0.0033508342200564783,-0.002028125019033092,-0.0023615968300923058,0.9999895406849759,-0.011626114077544422,-0.0028236601316807765,0.002493004002419161,-0.015516035392616052,0.0056360811195509015,0.005928866488128461,0.5408934321741066,0.198530525703927,-0.016366581654440205,18.9240460395813,0.0047995802015066,0.0381129384040832,0.5616047382354736,,,,,,,,0.6705836320579048,0.46547889064205716,0.5617831643319655,0.7148198841240677,90100.0,113200.0,106000.0,88200.0,18.928282260894772,0.10331520210741911,-0.4629621588963855,-0.010734711905778781,-0.3893063670919101,-0.2530866328207302,-0.3443690922635704,10.256881024088557,18.928282260894772,0.0030236843710875535,-0.00024105247101770998,0.49935105244335376,0.0,0.0,0.0,1.0,0.0,1.402386978473882e-18,-9.568369488545757e-19,0.11551157894736841,0.0011257894736842117,0.00705578947368421,0.0,0.0,0.0,18.92882442474365,3.700000047683716,False,True,False,True,True,False,False,1589.0241031106846,2525613.7267554877,1947.5064079950052,3791163.765193168,1846.068811281167,3407131.4616217376,1561.4043536099812,2438575.948442701,-0.3317612337174511,-0.23211026309024296,10.235473701088312,0,0.0,0.005114341505818884,-0.0032813020277111045,-0.004468348163127213
9,248,0.09000000000000043,0.0067354121231187015,0.0340274846122208,0.5778294294560502,0.004988252345453213,0.001370230952648392,-0.002294624091693568,0.9999839871247701,-0.011448401219893128,0.003963977490727217,0.005773122470466917,-0.015314325217095453,0.004979845875415804,0.0036552767579570095,0.38320307445289836,0.9776593543297499,0.0248735726911296,18.93670463562012,0.005001132376492,0.0380372181534767,0.5612744092941284,,,,,,,,0.6780518603549868,0.4531550103216556,0.5769149879975162,0.743308539575336,94600.0,105600.0,103800.0,94600.0,18.941362380981445,0.10970482476162635,-0.38741456596357293,-0.008814438918886301,-0.3829167444377026,-0.033733242951111846,-0.3566874947973864,10.211232582931757,18.941362380981445,0.0030236843710875535,-0.00024105247101770998,0.49935105244335376,0.0,0.0,0.0,1.0,0.0,1.402386978473882e-18,-9.568369488545757e-19,0.11551157894736841,0.0011257894736842117,0.00705578947368421,0.0,0.0,0.0,18.92882442474365,3.700000047683716,False,True,False,True,True,False,False,1618.6209759989733,2621356.0715408917,1888.8919260914001,3571614.667877182,1836.253921068797,3371317.290027317,1613.7863823875632,2607706.21457891,0.07213410796607371,-0.25673806671216404,10.160653568135707,0,0.0,0.007881569249144132,-0.003281481105024997,-0.004468592023576459
10,249,0.10000000000000066,0.006805274238851085,0.03390165593860311,0.5773996105607364,0.006382992059593669,0.007903449932275685,-0.0020818707168670765,0.9999462279072078,-0.010915408933318643,0.01701921474195587,0.008593604396572127,-0.014698202222012525,0.003762096334667846,0.008101113685652665,0.20111281337478762,1.931412879339264,0.05952119335943607,18.955955028533936,0.0059887003153562,0.03804262727499,0.5609351396560669,,,,,,,,0.6327457379068131,0.533013275479246,0.6305919827525381,0.6880895261418025,94300.0,103100.0,104900.0,95200.0,18.948410034179688,0.16295775940570717,-0.22398235996117294,-0.0021991759695862423,-0.32966380979362153,0.35652829442944545,-0.35664095799219653,10.136932125629507,18.948410034179688,0.009023684371087554,-0.00024105247101770998,0.49935105244335376,0.0,0.0,0.0,1.0,0.0,1.402386978473882e-18,-9.568369488545757e-19,0.2435115789473684,0.0011257894736842117,0.00705578947368421,0.0,0.0,0.0,18.96847248077393,3.684000015258789,False,True,False,True,True,False,False,1650.291184526855,2723974.8444288024,1813.6844541962632,3291178.9689712706,1824.9985026013956,3330841.860807253,1663.9080820704494,2769494.866411888,0.24456210433561337,-0.15066858568401223,10.19327265457522,0,0.0,0.01618370520640022,0.021622777397566816,-0.00446894826302001
11,250,0.11000000000000044,0.006951318515012614,0.03374037161707557,0.5768559824629685,0.007494073570355445,0.017866163670746837,-0.0017047770549165786,0.9998108485069589,-0.00996356877392666,0.03694131189485378,0.01088941967274057,-0.012386022590261336,0.001903018641047613,0.01584081788163352,0.09440851159632288,2.683682176579894,0.06758281821785062,18.955955028533936,0.0059887003153562,0.03804262727499,0.5609351396560669,,,,,,,,0.592561681426464,0.6261645893934332,0.6675853359981156,0.6147958521143784,94300.0,103100.0,104900.0,95200.0,18.948410034179688,0.27463312556206576,-0.08808346817477382,0.0046558404917155,-0.2179884436372631,0.8889958302155124,-0.3347923492593922,10.218255292478332,18.948410034179688,0.009023684371087554,-0.00024105247101770998,0.49935105244335376,0.0,0.0,0.0,1.0,0.0,1.402386978473882e-18,-9.568369488545757e-19,0.2435115789473684,0.0011257894736842117,0.00705578947368421,0.0,0.0,0.0,18.96847248077393,3.684000015258789,False,True,False,True,True,False,False,1670.935957797341,2791242.6145139355,1783.8816829869284,3179400.174126323,1823.6892694260496,3326159.198062947,1683.7243095791368,2833090.283595612,0.24456210433561337,-0.15066858568401223,10.19327265457522,0,0.0,0.01618370520640022,0.021622777397566816,-0.00446894826302001
12,251,0.12000000000000023,0.007208452966984775,0.03355918951870775,0.5763080344339219,0.008382322599734468,0.03093244669208373,-0.0011940108658542049,0.9994856150778397,-0.008635627377271934,0.0630999893782144,0.012796176304909075,-0.006847614124439491,-0.00041088945623134513,0.021429904935853148,0.09881191513236506,3.0331635925893616,0.05127443595643769,18.980124950408936,0.0074353842064738,0.0379150062799453,0.5602357387542725,,,,,,,,0.598529121543708,0.6719367561590535,0.6666068197147537,0.5868773807820449,98000.0,104200.0,104500.0,97100.0,18.98101043701172,0.4165592391069278,-0.004119208627720488,0.0083931133153311,-0.07606233009240192,1.38297544725045,-0.3076827738379393,10.336643127901054,18.98101043701172,0.020023684371087553,-0.00024105247101770998,0.49935105244335376,0.0,0.0,0.0,1.0,0.0,1.402386978473882e-18,-9.568369488545757e-19,0.40351157894736844,0.0011257894736842117,0.00705578947368421,0.0,0.0,0.0,19.009472370147705,3.684000015258789,False,True,False,True,True,False,False,1685.3007986865287,2839494.4149490055,1802.6439774919468,3248255.172095646,1826.6512110766596,3336609.7746835747,1680.6087669292672,2822616.3894637045,0.8255892103945348,-0.11604503826038556,10.462281112686433,0,0.0,0.01617714532200938,0.07693495493262673,-0.001701089487649009
13,252,0.13000000000000045,0.007616310101276219,0.033373240072493586,0.5758708638625999,0.009163703616716166,0.046264762587430716,-0.0006206826678708846,0.9988869871170509,-0.007070348445909079,0.09385350353419233,0.014553625678506224,0.002731057057709456,-0.002879417313903247,0.0208789207133073,0.16698248917735423,3.084641178245669,0.031073330708198066,18.980124950408936,0.0074353842064738,0.0379150062799453,0.5602357387542725,,,,,,,,0.6488391029825213,0.6627846650919929,0.6489706540130553,0.6248578595442031,98000.0,104200.0,104500.0,97100.0,18.98101043701172,0.528657244301447,0.05763165184003188,0.008528425735638199,0.03603567510211688,1.6234387883722154,-0.326906230467768,10.33142861328241,18.98101043701172,0.020023684371087553,-0.00024105247101770998,0.49935105244335376,0.0,0.0,0.0,1.0,0.0,1.402386978473882e-18,-9.568369488545757e-19,0.40351157894736844,0.0011257894736842117,0.00705578947368421,0.0,0.0,0.0,19.009472370147705,3.684000015258789,False,True,False,True,True,False,False,1706.0632952882552,2911555.699541095,1833.3091898737564,3361584.3842643425,1826.3933340591793,3335584.674359858,1682.6491092730312,2831181.6756580826,0.8255892103945348,-0.11604503826038556,10.462281112686433,0,0.0,0.01617714532200938,0.07693495493262673,-0.001701089487649009
14,253,0.14000000000000024,0.008216060945382369,0.03319083677497796,0.5756456248392497,0.009930375407460557,0.06281438678046952,-6.602922188156708e-05,0.997975819395341,-0.005445023365114856,0.12714512494357655,0.016347043621491364,0.01606402098153983,-0.005389560806422245,0.015082103795079911,0.21770568113221603,3.0927619237301887,0.024612545015034425,18.99560308456421,0.0084521081298589,0.0377892591059207,0.5601529479026794,,,,,,,,0.7026864944597515,0.6352911560609472,0.6451278658295941,0.6901334106527928,97400.0,106400.0,106000.0,96200.0,18.988357543945312,0.5691679707305783,0.07720143518216895,0.006091557774738729,0.07654640153124949,1.8136711509251262,-0.393898674050219,10.31124978733636,18.988357543945312,0.020023684371087553,-0.00024105247101770998,0.49935105244335376,0.0,0.0,0.0,1.0,0.0,1.402386978473882e-18,-9.568369488545757e-19,0.40351157894736844,0.0011257894736842117,0.00705578947368421,0.0,0.0,0.0,19.009472370147705,3.684000015258789,False,True,False,True,True,False,False,1738.30810498447,3024233.3158629034,1847.0140696780607,3411972.4926459272,1826.9271934332407,3338221.8640673906,1709.4658133186385,2924900.7841844438,0.2665501253800784,-0.16488753991126764,10.456144471359503,0,0.0,0.018922669870236757,0.13763873081390302,0.0010638038957688028
15,254,0.15000000000000047,0.009046221702049955,0.03301166411943419,0.5756953623809753,0.010692285537231276,0.07967510966226,0.0004129305296562078,0.9967634530913916,-0.003903010023039802,0.16120260666581643,0.01819237711822717,0.032771478858477365,-0.008062969061603349,0.010226841735297072,0.2051275873543357,3.205776948112856,0.03126764205275367,19.002950191497803,0.0097531666979193,0.037781499326229,0.560230553150177,,,,,,,,0.720187903951899,0.6303974913864352,0.6618447304298318,0.7229298795430686,103400.0,104900.0,102700.0,101000.0,19.00486850738525,0.5517538220658087,0.001798964962763736,0.002442694240246663,0.05913225286648173,2.328953234224442,-0.43277780485395057,10.476849820088876,19.00486850738525,0.020023684371087553,-0.00024105247101770998,0.49935105244335376,0.0,0.0,0.0,1.0,0.0,1.402386978473882e-18,-9.568369488545757e-19,0.40351157894736844,0.0011257894736842117,0.00705578947368421,0.0,0.0,0.0,19.009472370147705,3.684000015258789,False,True,False,True,True,False,False,1773.391713835562,3146703.217822144,1843.9492368611523,3400120.9905698467,1838.0929736978378,3380264.015113782,1754.478763390098,3081216.6634866465,0.33987121537074305,-0.22189164202256906,10.603372641394008,0,0.0,0.021670477881082163,0.1651530849287766,0.0010630561901340907
16,255,0.1600000000000007,0.010139908280032483,0.03283083165032693,0.5760229301821718,0.011379713826957847,0.09631650151322782,0.000801308961398143,0.9952853819651012,-0.0025075706527341716,0.1949985072975268,0.01994470591933308,0.05359776701489812,-0.010989104207355858,0.01300956345768269,0.14697826069647307,3.3698225993180135,0.03684672388266251,19.019461154937744,0.0124773867428302,0.0377669781446456,0.5602826476097107,,,,,,,,0.7059566015518619,0.653004862784132,0.6799920170246478,0.708509779404723,103400.0,106000.0,108300.0,103800.0,19.022010326385494,0.5347087175329928,-0.14131147480688164,-0.0005810479683986112,0.04208714833366524,3.0142208553612866,-0.39172704189304886,10.755826459793743,19.022010326385494,0.03602368437108756,-0.00024105247101770998,0.49935105244335376,0.0,0.0,0.0,1.0,0.0,1.402386978473882e-18,-9.568369488545757e-19,0.5785115789473684,0.0011257894736842117,0.00705578947368421,0.0,0.0,0.0,19.02841305732727,3.67300009727478,False,True,False,True,True,False,False,1799.2747319403215,3236956.140167577,1841.0691830182418,3389263.914503175,1860.815518460337,3464520.1508346894,1793.9265466627467,3218090.323139363,1.0776918539036475,-0.05595531933718029,11.313463355947535,0,0.0,0.02440693893773233,0.19808633166715325,0.0010619836823598115
17,256,0.17000000000000048,0.01152597197962549,0.03264589821038138,0.5765647430284662,0.011899522065896659,0.1125947745706762,0.0011202404941659772,0.9935691033718878,-0.0012415743933725408,0.22827142813133555,0.021414135118996685,0.07958098174288816,-0.013985906382785029,0.024374540217793103,0.09434942301064218,3.4532473846716725,0.030449622724894716,19.019461154937744,0.0124773867428302,0.0377669781446456,0.5602826476097107,,,,,,,,0.6981090309854525,0.6748837442713896,0.6819827077477352,0.68779499587988,103400.0,106000.0,108300.0,103800.0,19.022010326385494,0.5738636094613705,-0.23335515198811646,-0.00120951563740502,0.08124204026203835,3.425444252577372,-0.32041205728526645,10.902641335417918,19.022010326385494,0.03602368437108756,-0.00024105247101770998,0.49935105244335376,0.0,0.0,0.0,1.0,0.0,1.402386978473882e-18,-9.568369488545757e-19,0.5785115789473684,0.0011257894736842117,0.00705578947368421,0.0,0.0,0.0,19.02841305732727,3.67300009727478,False,True,False,True,True,False,False,1816.212602492954,3297396.5825610263,1850.8273851042297,3425817.036252859,1884.6767296877827,3552646.00158932,1814.4926481399232,3290149.291147091,1.0776918539036475,-0.05595531933718029,11.313463355947535,0,0.0,0.02440693893773233,0.19808633166715325,0.0010619836823598115
18,257,0.18000000000000027,0.013233922119409859,0.03246195117094725,0.5772114080882614,0.01219959454988956,0.1285993295529003,0.0014067762101811472,0.991620594437236,-3.848330737060064e-05,0.2612251104658289,0.022498088382744485,0.10986273170787485,-0.01668142505171343,0.03873803090992438,0.07918706042340534,3.4143728831264815,0.014407209595124468,19.03660297393799,0.0147075448185205,0.0376367196440696,0.5602813363075256,,,,,,,,0.7161016599969414,0.6754161361599218,0.6736725520915112,0.6988868476682433,104900.0,106800.0,108300.0,104500.0,19.02847194671631,0.675700261076247,-0.197478312007644,0.0005889937998613904,0.1830786918769117,3.631494667683172,-0.307977018024818,10.910254305371186,19.02847194671631,0.03602368437108756,-0.00024105247101770998,0.49935105244335376,0.0,0.0,0.0,1.0,0.0,1.402386978473882e-18,-9.568369488545757e-19,0.5785115789473684,0.0011257894736842117,0.00705578947368421,0.0,0.0,0.0,19.02841305732727,3.67300009727478,False,True,False,True,True,False,False,1836.0222552525997,3371137.912098577,1870.9907382718409,3501177.3136725854,1900.7631895955299,3612376.447976184,1827.6064969658614,3339246.3965483964,0.48018865443375525,-0.013039617045958185,11.548699072217634,0,0.0,0.02433920165737217,0.26905393632295005,0.0038097043520015257
19,258,0.1900000000000005,0.015299379642903723,0.03229159758518072,0.5778508980104815,0.012297730645934453,0.14449680415285224,0.001695781673971859,0.9894273918459539,0.0011838233236246296,0.29422726589006243,0.023242193696806187,0.14210938704156223,-0.018879205090132432,0.049891410874902134,0.09046549099039138,3.3250483048273662,-0.0013238477308149953,19.0430645942688,0.01707099750638,0.0376355350017547,0.5605767369270325,,,,,,,,0.7413884374568351,0.6661829850025295,0.6742169944426958,0.7319262273141426,106800.0,108300.0,109100.0,104900.0,19.040951013565063,0.7878375544404821,-0.08851735342624018,0.0028277909420420483,0.29521598524115344,4.041052627485169,-0.3758492538791159,10.995118737691232,19.040951013565063,0.03602368437108756,-0.00024105247101770998,0.49935105244335376,0.0,0.0,0.0,1.0,0.0,1.402386978473882e-18,-9.568369488545757e-19,0.5785115789473684,0.0011257894736842117,0.00705578947368421,0.0,0.0,0.0,19.02841305732727,3.67300009727478,False,True,False,True,True,False,False,1864.6061960888132,3478276.80636666,1890.1963130644353,3572719.6151878675,1911.174653076531,3652030.988657479,1851.4269769914583,3429723.730020012,0.45508162320481116,-0.07260971064806998,11.506753190289643,0,0.0,0.024304554557274583,0.29888520916341516,0.0038042811992669325
20,259,0.2000000000000003,0.017765160570946365,0.03215066762302503,0.5784133686311544,0.012263680428715798,0.16045667235645195,0.0020107413316125494,0.9869646474711917,0.0024982960513853475,0.32766988519888524,0.023803739384420413,0.17622224737007725,-0.020846606047934757,0.05683619261212357,0.0959300606864564,3.263874578299764,-0.010805897966603802,19.055543661117557,0.0263519510626792,0.037832923233509,0.5616567134857178,,,,,,,,0.7507982353118505,0.6720167641461058,0.6916509757424842,0.7518102529341724,109100.0,109900.0,111100.0,109100.0,19.05855107307434,0.8371325320036547,-0.013290986232477875,0.0036560687240677335,0.34451096280433896,4.648921756427223,-0.45940491554761653,11.191210090725725,19.05855107307434,0.059023684371087556,-0.00024105247101770998,0.49935105244335376,0.0,0.0,0.0,1.0,0.0,1.402386978473882e-18,-9.568369488545757e-19,0.7705115789473684,0.0011257894736842117,0.00705578947368421,0.0,0.0,0.0,19.06592011451721,3.641999959945679,False,True,False,True,True,False,False,1893.071912318569,3584460.7901381324,1902.3318549630496,3618239.862498181,1924.0771802949407,3702128.1242468758,1884.588554612673,3553978.281230566,0.886707775128889,-0.17856084080153667,12.333025860824186,0,0.0,0.024262781473408733,0.3312759009751466,0.0037977426487573246
21,260,0.21000000000000052,0.020674569116467905,0.0320531355297182,0.5788947573510503,0.01217498294475553,0.17659618534694144,0.0023601540772410197,0.9842052564297425,0.003946587144879641,0.3618559468762158,0.024354989387815256,0.21586866935537652,-0.023116787214769882,0.06330351012314056,0.07929387307418298,3.235675859366554,-0.016038980767419938,19.055543661117557,0.0263519510626792,0.037832923233509,0.5616567134857178,,,,,,,,0.7475783775932141,0.6965276895573401,0.7153093613575017,0.7481164940563615,109100.0,109900.0,111100.0,109100.0,19.05855107307434,0.7782573378466437,-0.004396641659924756,0.0032047285309308262,0.28563576864732665,5.125299403342696,-0.4851921150377266,11.310378289620441,19.05855107307434,0.059023684371087556,-0.00024105247101770998,0.49935105244335376,0.0,0.0,0.0,1.0,0.0,1.402386978473882e-18,-9.568369488545757e-19,0.7705115789473684,0.0011257894736842117,0.00705578947368421,0.0,0.0,0.0,19.06592011451721,3.641999959945679,False,True,False,True,True,False,False,1910.6279946308237,3649630.508260375,1914.0089124601664,3663738.495224176,1943.5592517566379,3777930.093339646,1908.3333620422382,3641685.996222997,0.886707775128889,-0.17856084080153667,12.333025860824186,0,0.0,0.024262781473408733,0.3312759009751466,0.0037977426487573246
22,261,0.2200000000000003,0.024058637393530743,0.03200826604304117,0.5793505030780741,0.01207774695934418,0.19288338110212191,0.002736195836832965,0.9811435382018995,0.00551861881533607,0.39678434664115453,0.024990750415583095,0.2645929083105846,-0.025887777204340365,0.0727764093267528,0.051114085441447535,3.1985962538811403,-0.02159460527590146,19.07314372062683,0.0263519510626792,0.037832923233509,0.5616567134857178,,,,,,,,0.7491142119333203,0.7172322329371658,0.7307664735495853,0.743863653009521,110700.0,108300.0,111900.0,110700.0,19.06860566139221,0.6097808712993796,-0.01786395367469493,0.0027652267383240703,0.11715930210003345,5.427208981174667,-0.4475152558738993,11.300245422135871,19.06860566139221,0.059023684371087556,-0.00024105247101770998,0.49935105244335376,0.0,0.0,0.0,1.0,0.0,1.402386978473882e-18,-9.568369488545757e-19,0.7705115789473684,0.0011257894736842117,0.00705578947368421,0.0,0.0,0.0,19.06592011451721,3.641999959945679,False,True,False,True,True,False,False,1920.696093676173,3688023.8440867835,1933.7135761172642,3741079.5259530093,1965.6555055748545,3864197.30122245,1914.1789327497013,3662698.89196295,0.5287975387983268,-0.15324539286790884,12.464160488722278,0,0.0,0.024167048571399556,0.3955178698795033,0.006513970346187026
23,262,0.23000000000000054,0.02792481415056523,0.03202050923201826,0.5798674230857978,0.011973385576048092,0.20906134398301043,0.0031166461461469884,0.9778242577307358,0.007146667413211008,0.4319668908496502,0.025691374430181192,0.321746883187005,-0.02868699208274934,0.08557638074164989,0.02760467968982283,3.1305292659126827,-0.029142305549091432,19.083198308944706,0.0307616032660007,0.0378223024308681,0.5626480579376221,,,,,,,,0.7567747570712648,0.7182326841285482,0.737456561484739,0.7567643596071272,110300.0,113600.0,114100.0,109100.0,19.078458070755005,0.36896191476943063,-0.02407929432176218,0.00296484708804588,-0.12365965442994065,5.789040476051898,-0.4008575985641427,11.294109040451216,19.078458070755005,0.08902368437108756,-0.00024105247101770998,0.49935105244335376,0.0,0.0,0.0,1.0,0.0,1.402386978473882e-18,-9.568369488545757e-19,0.9635115789473684,0.0011257894736842117,0.00705578947368421,0.0,0.0,0.0,19.096267461776733,3.615000009536743,False,True,False,True,True,False,False,1936.9120081860056,3752055.929657348,1956.296724734955,3828917.2829046776,1982.6757743505545,3931117.61095128,1917.7184677129057,3677470.3262268933,0.5131892130397775,-0.10484654858124925,12.714993310614451,0,0.0,0.024117945551352018,0.42469654029416803,0.006500735150521618
24,263,0.24000000000000032,0.03225574727777051,0.03209077375896069,0.5805289772963633,0.011833883968224922,0.22469077307551913,0.0034709035404344025,0.9743520762607145,0.008723428249314165,0.466485897152921,0.02635470196297056,0.38390760569586935,-0.030756044018254318,0.10029122277721564,0.011782736803876813,3.0429343604640593,-0.03780959478722394,19.09305071830749,0.03547865152359,0.0381254665553569,0.563515841960907,,,,,,,,0.7557578922148772,0.7122822825647881,0.7434527527671764,0.7723837728775133,111500.0,114100.0,115400.0,109500.0,19.088647603988647,0.13674214394028283,-0.03795062823369952,0.0035267048455217614,-0.35587942525905064,6.283554026713749,-0.38764520060972296,11.32379481920836,19.088647603988647,0.08902368437108756,-0.00024105247101770998,0.49935105244335376,0.0,0.0,0.0,1.0,0.0,1.402386978473882e-18,-9.568369488545757e-19,0.9635115789473684,0.0011257894736842117,0.00705578947368421,0.0,0.0,0.0,19.096267461776733,3.615000009536743,False,True,False,True,True,False,False,1963.2656345668138,3855976.792682222,1968.6836854995677,3876355.0329663316,1991.7579650945218,3967412.828739371,1937.7609969246957,3757003.511882955,0.4173240753095042,-0.098248455781688,12.95949009233016,0,0.0,0.024065643512472874,0.45369281672589734,0.006486637693428447
25,264,0.25000000000000056,0.03702213350889018,0.03221763259754358,0.5813877787164976,0.011632246346942729,0.23930326718431774,0.0037694988320227402,0.9708678736256496,0.010140675703539333,0.4992873917963332,0.026871564377652077,0.44882973946959226,-0.03175801290687071,0.11581859109120562,0.0019553896356555916,2.9473064718039446,-0.04701436839591422,19.103240251541138,0.0405875369906425,0.0380501970648765,0.5644098520278931,,,,,,,,0.7429673693103294,0.714818302055646,0.7429860945401103,0.7685187580553907,115400.0,112400.0,112400.0,114500.0,19.09899139404297,0.03142126951096379,-0.05974029361642757,0.004029735267905226,-0.46120029968827914,6.752490614396149,-0.39184802166264754,11.289820603162937,19.09899139404297,0.08902368437108756,-0.00024105247101770998,0.49935105244335376,0.0,0.0,0.0,1.0,0.0,1.402386978473882e-18,-9.568369488545757e-19,0.9635115789473684,0.0011257894736842117,0.00705578947368421,0.0,0.0,0.0,19.096267461776733,3.615000009536743,False,True,False,True,True,False,False,1985.5586770979758,3943440.0890798876,1970.8116737273879,3884322.6768966885,1998.017491377629,3992919.1002404173,1969.1736200830992,3879735.3147957716,0.4911902017702783,-0.07426858708831297,13.203225158981303,0,0.0,0.024010220308686863,0.4824963330776572,0.006471698959603085
26,265,0.26000000000000034,0.04220655568642526,0.032398087992606336,0.5824550070841152,0.011367349297307254,0.2525722462739566,0.003997959366736544,0.9675030026325411,0.011339934478395588,0.5295293543867479,0.02719866846524642,0.5157635532501331,-0.03204455454192602,0.13114571848617657,0.006945247515104032,2.8408102308542578,-0.05653050086955372,19.11358404159546,0.0467728301882743,0.0385030284523963,0.5655645132064819,,,,,,,,0.7339904776366138,0.7132412773163064,0.7187157483546089,0.7504540268834694,114100.0,111100.0,115400.0,114100.0,19.108805418014526,0.14448201452464132,-0.04849515447269654,0.0038662285886024847,-0.3481395546745947,7.078554722143057,-0.37355181839674223,11.156748666963836,19.108805418014526,0.08902368437108756,-0.00024105247101770998,0.49935105244335376,0.0,0.0,0.0,1.0,0.0,1.402386978473882e-18,-9.568369488545757e-19,0.9635115789473684,0.0011257894736842117,0.00705578947368421,0.0,0.0,0.0,19.096267461776733,3.615000009536743,False,True,False,True,True,False,False,1987.6211247428455,3951091.4532537023,1976.560826280153,3907573.774410774,2006.5221069182296,4027109.665640186,1987.9352800933755,3952127.9732928374,0.5345532230582748,-0.10423521295351462,13.11184442053057,0,0.0,0.0239571120305123,0.5085039401641024,0.009164869864074016
27,266,0.2700000000000006,0.04782861170200738,0.03262828757704873,0.5837094220766923,0.011066903602891082,0.2644264460378559,0.004173645217334369,0.9643333235795769,0.012360897577750291,0.5568406957842862,0.02738757941429759,0.5827257486939131,-0.03224884581061848,0.1445649042727012,0.03616557547542563,2.7265891217057527,-0.06448926400765408,19.123398065567017,0.0536154098808765,0.0388875640928745,0.5671795010566711,,,,,,,,0.7357931944646098,0.6880996172910259,0.6753384804975546,0.7412296796672146,111500.0,115400.0,116700.0,113200.0,19.118369102478027,0.441722283443888,0.016263594847905176,0.0021001770554998646,-0.0508992857555355,7.316493552194405,-0.3384950190204375,10.94149943278939,19.118369102478027,0.12302368437108756,-0.00024105247101770998,0.49935105244335376,0.0,0.0,0.0,1.0,0.0,1.402386978473882e-18,-9.568369488545757e-19,1.1465115789473685,0.0011257894736842117,0.00705578947368421,0.0,0.0,0.0,19.126288414001465,3.6050000190734863,False,True,False,True,True,False,False,1971.3560499874907,3886738.7380516864,1990.142968704768,3961702.243585891,2013.7508170632827,4055612.2942158217,1981.9484584170998,3927845.3463769145,0.3594663948408874,-0.11521187361580698,13.190219602086163,0,0.0,0.02119559443512812,0.5369176228124487,0.009141566919607292
28,267,0.28000000000000036,0.053957215201138053,0.032904143598279825,0.585118376250169,0.010768162817776289,0.2750792311565197,0.0043549714064393475,0.9613513912612375,0.013359433285390718,0.5814374842955047,0.02755688808312623,0.6464717919234371,-0.032670127870079925,0.15455715116383664,0.07613517703456098,2.620839321808442,-0.06751689606733223,19.13296175003052,0.0606484487652778,0.0390337072312831,0.5686067938804626,,,,,,,,0.7332157842653138,0.6527236216033052,0.6471994329195285,0.7448252695572122,112800.0,115400.0,114100.0,112400.0,19.13043975830078,0.7393305470559374,0.08664176662300527,-0.0012469876949265212,0.24670897785631704,7.562912680714224,-0.33005296219383,10.63013806989768,19.13043975830078,0.12302368437108756,-0.00024105247101770998,0.49935105244335376,0.0,0.0,0.0,1.0,0.0,1.402386978473882e-18,-9.568369488545757e-19,1.1465115789473685,0.0011257894736842117,0.00705578947368421,0.0,0.0,0.0,19.126288414001465,3.6050000190734863,False,True,False,True,True,False,False,1954.106021772552,3818627.080158094,1996.2696003805825,3985817.319776428,2011.1947782296634,4044865.843281389,1965.7842574421268,3864210.221491382,0.28753086270796313,-0.041985758416568875,13.114397451472204,0,0.0,0.021149311145773377,0.5599975560229815,0.009121605139899206
29,268,0.2900000000000006,0.06069749578971829,0.03322089817752911,0.5866561041452455,0.010494000532279687,0.28496202984907426,0.004628516971542884,0.9584701843707858,0.014567223469220444,0.6040546290405601,0.027832756257490113,0.7065661719397301,-0.0330538964797131,0.1613115097795081,0.09469876535585281,2.5282555387293533,-0.06348056770977223,19.14503240585327,0.0775067210197448,0.0401731319725513,0.5716637969017029,,,,,,,,0.7141620704420485,0.6414422353894216,0.6555055428022305,0.7409306813262214,111500.0,112400.0,114100.0,112400.0,19.1504020690918,0.8348695427702042,0.0972282798794055,-0.004060650113259043,0.34224797357079456,7.810404798030557,-0.3400730762087144,10.265462238237436,19.1504020690918,0.16502368437108755,-0.00024105247101770998,0.49935105244335376,0.0,0.0,0.0,1.0,0.0,1.402386978473882e-18,-9.568369488545757e-19,1.3235115789473686,0.0011257894736842117,0.00705578947368421,0.0,0.0,0.0,19.16006064414978,3.6050000190734863,False,True,False,True,True,False,False,1948.3962119299865,3795928.820064782,1981.3211776930993,3926596.8051502006,1995.172917134811,3980941.67591062,1961.0745745216616,3845609.601189048,0.6614561252965219,-0.12466825329989123,12.800785296106913,0,0.0,0.0211194705712592,0.583425571334724,0.009108735030986916
30,269,0.3000000000000004,0.06815081230853465,0.03357110318702162,0.5883079291754427,0.010246225367430934,0.29456274601238835,0.005072600697944513,0.9555637457802175,0.01619910678445884,0.6256602529844156,0.02830368311731755,0.768005224136705,-0.03291973894453108,0.16650846487568965,0.07778564393487203,2.4278506967139344,-0.053189618785415387,19.14503240585327,0.0775067210197448,0.0401731319725513,0.5716637969017029,,,,,,,,0.6909739249346442,0.659867350860952,0.6767205764811861,0.7169321990687443,111500.0,112400.0,114100.0,112400.0,19.1504020690918,0.700031601830845,0.04655490794615681,-0.003924008037316325,0.20741003263206256,7.9808926608282835,-0.30480889785467535,9.94504699542695,19.1504020690918,0.16502368437108755,-0.00024105247101770998,0.49935105244335376,0.0,0.0,0.0,1.0,0.0,1.402386978473882e-18,-9.568369488545757e-19,1.3235115789473686,0.0011257894736842117,0.00705578947368421,0.0,0.0,0.0,19.16006064414978,3.6050000190734863,False,True,False,True,True,False,False,1949.965705028007,3802087.58111232,1953.457188870154,3816666.921053718,1970.0805993694144,3881775.607591603,1969.3209842776887,3877889.189465765,0.6614561252965219,-0.12466825329989123,12.800785296106913,0,0.0,0.0211194705712592,0.583425571334724,0.009108735030986916
31,270,0.3100000000000006,0.07636398628830093,0.03394254428369482,0.5900606740765638,0.010022177983124717,0.30421947221966505,0.005717513792916101,0.9525320880195537,0.01835973582244109,0.6470273085751065,0.029019051384294236,0.8378587803072621,-0.03205385036380591,0.17128740240572463,0.05145149164787362,2.2938869311638945,-0.039299691477585066,19.164994716644287,0.0973646938800811,0.041340421885252,0.5752389430999756,,,,,,,,0.6836555153533739,0.672967271837442,0.6719959232915218,0.6878250316026637,111500.0,110300.0,110300.0,113200.0,19.172598600387573,0.5154118934059967,-0.001044764429369148,-0.001233067809320572,0.022790324207371954,8.040839322392294,-0.2237003296071088,9.655331105081334,19.172598600387573,0.16502368437108755,-0.00024105247101770998,0.49935105244335376,0.0,0.0,0.0,1.0,0.0,1.402386978473882e-18,-9.568369488545757e-19,1.3235115789473686,0.0011257894736842117,0.00705578947368421,0.0,0.0,0.0,19.16006064414978,3.625999927520752,False,True,False,True,True,False,False,1945.4735013662498,3785127.6460816334,1932.860160097261,3735438.379139063,1943.9251529978865,3779139.495066731,1970.7172542790186,3883969.052560044,0.5329489176553937,0.0193666729806799,12.459569369735362,0,0.0,0.021174844323217132,0.6281225946009655,0.01183057698143517
32,271,0.3200000000000004,0.08529645623792369,0.03431904976995634,0.5918894032372555,0.009838198823406296,0.31397044594802154,0.006531907599838416,0.9493593119036747,0.02101438156636713,0.6683707214038279,0.030021265733493025,0.9188493089410044,-0.030683059621735675,0.17472941384208793,0.05494098718896825,2.120236903214127,-0.024635568194081737,19.164994716644287,0.0973646938800811,0.041340421885252,0.5752389430999756,,,,,,,,0.6928090367759148,0.6506117236570058,0.6368936604949372,0.6770154180347021,111500.0,110300.0,110300.0,113200.0,19.172598600387573,0.47480845055571463,0.009900313216324716,0.0010478828659937147,-0.017813118644101972,8.021031600093247,-0.18304739078249133,9.302081741012357,19.172598600387573,0.16502368437108755,-0.00024105247101770998,0.49935105244335376,0.0,0.0,0.0,1.0,0.0,1.402386978473882e-18,-9.568369488545757e-19,1.3235115789473686,0.0011257894736842117,0.00705578947368421,0.0,0.0,0.0,19.16006064414978,3.625999927520752,False,True,False,True,True,False,False,1928.3120061086386,3719244.8083860492,1927.0488128906043,3712578.5581914526,1922.067950894912,3694247.7648910256,1948.8742866788878,3800023.83612253,0.5329489176553937,0.0193666729806799,12.459569369735362,0,0.0,0.021174844323217132,0.6281225946009655,0.01183057698143517
33,272,0.3300000000000006,0.09482999727437418,0.03468579972533893,0.593751382775199,0.009735976833740001,0.32354398878731755,0.0074509174930709665,0.9461337019170157,0.024052314720441732,0.6892538965835022,0.03137466918083769,1.006201631970921,-0.029213289242739495,0.17461155145920415,0.09587372938544021,1.9188219909239002,-0.011883376496656627,19.187191247940063,0.1085684448480606,0.0418834798038005,0.5770354270935059,,,,,,,,0.6999978734603454,0.6064317926276768,0.6043179299102583,0.6866436161176791,107900.0,110300.0,109100.0,107500.0,19.190088033676147,0.5826566056367886,0.07017871377544578,0.001117029640261952,0.0900350364354753,7.9568530350375894,-0.21756688215605263,8.903387659836289,19.190088033676147,0.21202368437108754,-0.00024105247101770998,0.49935105244335376,0.0,0.0,0.0,1.0,0.0,1.402386978473882e-18,-9.568369488545757e-19,1.4835115789473685,0.0011257894736842117,0.00705578947368421,0.0,0.0,0.0,19.19905018806457,3.625999927520752,False,True,False,True,True,False,False,1904.8139386080566,3628905.165428237,1923.5920241274898,3700122.1976715038,1904.4426369899472,3626931.8162741014,1910.311813491362,3651315.7719841474,0.40660077343605305,-0.10664765050937403,11.723796787124128,0,0.0,0.018525981256683154,0.670368441908263,0.017272264548922847
34,273,0.3400000000000004,0.10482479185373682,0.035037608553925306,0.5955914001103494,0.00976335156943228,0.3324866657200617,0.008432882889180763,0.9430197137762629,0.027409375946303337,0.708800436209754,0.03316468719386771,1.090635474174697,-0.027813384732593763,0.16954862278121782,0.1437704322443471,1.7037970627834653,-0.0036828335700054577,19.187191247940063,0.1085684448480606,0.0418834798038005,0.5770354270935059,,,,,,,,0.6904842469164841,0.5767796054325222,0.6002535337828804,0.6968367301711151,107900.0,110300.0,109100.0,107500.0,19.190088033676147,0.6943598034226911,0.12651181895129363,0.0003084609710208604,0.20173823422247925,7.860519157268173,-0.2510154484389879,8.562626947668827,19.190088033676147,0.21202368437108754,-0.00024105247101770998,0.49935105244335376,0.0,0.0,0.0,1.0,0.0,1.402386978473882e-18,-9.568369488545757e-19,1.4835115789473685,0.0011257894736842117,0.00705578947368421,0.0,0.0,0.0,19.19905018806457,3.625999927520752,False,True,False,True,True,False,False,1885.3754283475198,3554529.7822985877,1907.5974411697496,3640265.72396829,1888.8420187090978,3568098.983090376,1875.9179795190034,3519073.820247707,0.40660077343605305,-0.10664765050937403,11.723796787124128,0,0.0,0.018525981256683154,0.670368441908263,0.017272264548922847
35,274,0.35000000000000064,0.11519953915815921,0.035386451535058455,0.5973548711431886,0.009945440659041772,0.34034760491720994,0.009508441965561875,0.9401990138096316,0.031171612864795504,0.7260633185766,0.035473466705208984,1.1656563969288007,-0.026195448418837003,0.16006413511350406,0.16697707162990805,1.4799918874261502,-0.0016587062646942303,19.20468068122864,0.1328781992197036,0.0435871519148349,0.5804706811904907,,,,,,,,0.6696574440282095,0.5726972365114871,0.6126057268643068,0.692347854039272,108300.0,107100.0,106400.0,107500.0,19.20294976234436,0.7203675400518718,0.13943429914476807,0.00075015191667096,0.22774597085593984,7.7465345544371225,-0.21856307426847332,8.30784606545308,19.20294976234436,0.21202368437108754,-0.00024105247101770998,0.49935105244335376,0.0,0.0,0.0,1.0,0.0,1.402386978473882e-18,-9.568369488545757e-19,1.4835115789473685,0.0011257894736842117,0.00705578947368421,0.0,0.0,0.0,19.19905018806457,3.678999900817871,False,True,False,True,True,False,False,1873.1516437665646,3508547.5229599536,1880.4118547412422,3537331.2665518355,1875.317514488285,3517089.2596843913,1858.4577246737201,3452860.839291177,0.13266437747085025,-0.09112496437922557,11.413540746846142,0,0.0,0.0212753186458226,0.7015828164276173,0.02001899306083325
36,275,0.36000000000000043,0.12599595266148672,0.0357647469835647,0.5990013411907553,0.010270598285094882,0.3468200320912465,0.010786212361461331,0.9378134344175212,0.035584377059383804,0.7403413894917781,0.03835498850289489,1.2333554825905075,-0.023739758917856898,0.14741942242590358,0.16441505368966908,1.2393401908955397,-0.004999677161155257,19.21754240989685,0.1599754989147186,0.0456816814839839,0.5833964943885803,,,,,,,,0.6566958653213049,0.5721595726676846,0.6120247240777412,0.6801250304043264,106400.0,105600.0,106800.0,106000.0,19.21847128868103,0.6996075139163784,0.1101280222382511,0.002396120543662595,0.2069859447222435,7.639844406057881,-0.1575479868092112,8.102089652555836,19.21847128868103,0.2630236843710876,-0.00024105247101770998,0.49935105244335376,0.0,0.0,0.0,1.0,0.0,1.402386978473882e-18,-9.568369488545757e-19,1.6155115789473686,0.0011257894736842117,0.00705578947368421,0.0,0.0,0.0,19.2382926940918,3.678999900817871,False,True,False,True,True,False,False,1864.337239097331,3476009.340184155,1855.5671878348103,3442811.287495718,1864.5089903215367,3476276.327519647,1854.6126240749193,3439323.301190779,0.15557587904654913,-0.007455916394006279,11.00825545357981,0,0.0,0.021287917414795007,0.7101353795149213,0.02274321256057309
37,276,0.3700000000000002,0.13739104641862862,0.03622273314456288,0.6005122971620497,0.010700852839663195,0.35178613222280064,0.012405034042801829,0.9359370299622849,0.040943531904445434,0.7513095819565545,0.041819239667975155,1.3015787253722668,-0.01987739907336953,0.1319248786986324,0.15812742035749155,0.970821147254213,-0.010391325604139587,19.21754240989685,0.1599754989147186,0.0456816814839839,0.5833964943885803,,,,,,,,0.6624141287765695,0.5559286584949106,0.5920197903582436,0.6760320156775028,106400.0,105600.0,106800.0,106000.0,19.21847128868103,0.6755712847831803,0.06473266018429633,0.0034254838769172983,0.18294971558161324,7.532914198114663,-0.13186986435130285,7.918760798258994,19.21847128868103,0.2630236843710876,-0.00024105247101770998,0.49935105244335376,0.0,0.0,0.0,1.0,0.0,1.402386978473882e-18,-9.568369488545757e-19,1.6155115789473686,0.0011257894736842117,0.00705578947368421,0.0,0.0,0.0,19.2382926940918,3.678999900817871,False,True,False,True,True,False,False,1855.542823814244,3443268.8259543427,1838.8518899162186,3380063.722128476,1853.6787324953518,3436050.81971499,1854.5047750889894,3439599.3721596855,0.15557587904654913,-0.007455916394006279,11.00825545357981,0,0.0,0.021287917414795007,0.7101353795149213,0.02274321256057309
38,277,0.38000000000000045,0.14964745263704604,0.03682005464103881,0.6018917157303667,0.011195621147104892,0.3552826143155962,0.014457224614933773,0.934580071844376,0.047420955197390625,0.7589798067718143,0.045820103434005804,1.3735642185573518,-0.014472205965650171,0.11324783675005123,0.1650041443828219,0.6808081523773816,-0.014127456922534212,19.23306393623352,0.1745824068784713,0.0466922745108604,0.5846710205078125,,,,,,,,0.6758041228564946,0.5305892308835569,0.5722792672492321,0.6809769652317947,105300.0,105300.0,105600.0,106000.0,19.229901790618896,0.6186419953657247,0.030729922340205964,0.0029454375677563974,0.1260204261530824,7.380238158168208,-0.1384391388485057,7.73058764784599,19.229901790618896,0.2630236843710876,-0.00024105247101770998,0.49935105244335376,0.0,0.0,0.0,1.0,0.0,1.402386978473882e-18,-9.568369488545757e-19,1.6155115789473686,0.0011257894736842117,0.00705578947368421,0.0,0.0,0.0,19.2382926940918,3.678999900817871,False,True,False,True,True,False,False,1845.2264814278383,3404624.338106221,1820.8546725309877,3315411.649032865,1838.8898697430836,3382015.331219515,1850.5583152165973,3424767.3404793744,-0.026973287504240773,-0.029364947659052565,10.698611734132154,0,0.0,0.024029874907351405,0.7273051450156989,0.030918383952531475
39,278,0.39000000000000024,0.16302548324650742,0.037612908313163836,0.6031608117600727,0.011730231306090516,0.3574507590445057,0.016927055240147707,0.9337048952066758,0.054926333237747274,0.7636189650894007,0.050246915254470836,1.4434966195815435,-0.00785526194150054,0.09217746191498728,0.18435401190930145,0.3930788635374315,-0.015167955084181534,19.244494438171387,0.1745824068784713,0.0466922745108604,0.5846710205078125,,,,,,,,0.6769504684893017,0.511532335772712,0.566170055392839,0.6797461724610644,104900.0,101700.0,103100.0,105300.0,19.239051818847656,0.528154699320831,0.0238014267512697,0.002194953576338446,0.03553313011336448,7.175759338746274,-0.13815556939380697,7.523107486535313,19.239051818847656,0.2630236843710876,-0.00024105247101770998,0.49935105244335376,0.0,0.0,0.0,1.0,0.0,1.402386978473882e-18,-9.568369488545757e-19,1.6155115789473686,0.0011257894736842117,0.00705578947368421,0.0,0.0,0.0,19.2382926940918,3.688999891281128,False,True,False,True,True,False,False,1830.3375027504198,3349823.78625531,1791.3005930577676,3210569.1921024974,1820.0458101717159,3313355.207153223,1838.5510435890367,3380095.4587954893,-0.06645354138643533,-0.019006077148828293,10.33848882051766,0,0.0,0.024039559382361096,0.7330318542762467,0.030930844621506356
40,279,0.40000000000000047,0.17769327509625887,0.03863921922010168,0.6043472883655009,0.012298868571261785,0.358512663711887,0.019679075942830113,0.9332363804310838,0.06308683154705536,0.7657113523269459,0.05492796705510998,1.5066070353535956,-0.0003633621437398988,0.07065438437441976,0.20922384010320608,0.1134893963721542,-0.016348095971245015,19.253644466400143,0.2222758382558822,0.050210140645504,0.5872451663017273,,,,,,,,0.661495179040973,0.4985997159084239,0.5630924841746896,0.6631092650996455,104500.0,101400.0,104500.0,104900.0,19.25083065032959,0.5055562001961578,0.04110658468175945,0.0029596185250262996,0.012934631017470853,6.977655143636729,-0.12736508852291017,7.33245390566447,19.25083065032959,0.3190236843710876,-0.00024105247101770998,0.49935105244335376,0.0,0.0,0.0,1.0,0.0,1.402386978473882e-18,-9.568369488545757e-19,1.7265115789473686,0.0011257894736842117,0.00705578947368421,0.0,0.0,0.0,19.265864610672,3.688999891281128,False,True,False,True,True,False,False,1808.8337106852541,3272100.9177686777,1753.2497409790192,3075424.2247193996,1799.7190252757628,3239261.4958058516,1817.8457157124808,3304538.002204298,-0.10780480494161804,-0.045160808393421126,10.204284091572362,0,0.0,0.024046283779531722,0.7359544847868917,0.04452731691289785
41,280,0.4100000000000007,0.1936619360230851,0.03990527467296272,0.6054684353457453,0.01290578586286321,0.3587433948815446,0.02249725653585814,0.9330758226256245,0.0713419755471079,0.7658981962641208,0.05964818373343395,1.5706452029494613,0.008141104956589694,0.049434567042001026,0.23930417834310824,-0.1941961707260896,-0.021910932828350424,19.26542329788208,0.2395854443311691,0.051463458687067,0.5880410671234131,,,,,,,,0.6444939040118319,0.47903572444040976,0.5468841647090803,0.6406519413066807,101700.0,97100.0,100700.0,101700.0,19.269107580184937,0.6215269940954538,0.0643769738462425,0.005504821190955787,0.12890542493363227,6.8074240878011825,-0.12892059070890471,7.197477006359341,19.269107580184937,0.3190236843710876,-0.00024105247101770998,0.49935105244335376,0.0,0.0,0.0,1.0,0.0,1.402386978473882e-18,-9.568369488545757e-19,1.7265115789473686,0.0011257894736842117,0.00705578947368421,0.0,0.0,0.0,19.265864610672,3.688999891281128,False,True,False,True,True,False,False,1786.480980871146,3192110.9121246664,1717.3858233002966,2948762.8982380033,1777.2530363589538,3158305.961202848,1792.8277532730465,3214703.0043656286,-0.1946672990136573,-0.059869602436375124,9.795533551037373,0,0.0,0.026764564172365272,0.7359742029640296,0.04724614604705663
42,281,0.4200000000000005,0.21076739927585214,0.04137771282004765,0.6065122413925296,0.013559085680649273,0.35836824533084144,0.02514451632226732,0.9331431322326269,0.07907454574321238,0.7647381144129511,0.06417495998209552,1.6495308619190223,0.017930989340362576,0.02717821298388255,0.27771456154216356,-0.5706180501443496,-0.03334598311945323,19.26542329788208,0.2395854443311691,0.051463458687067,0.5880410671234131,,,,,,,,0.6380617697134785,0.4494013738669883,0.5189998361260058,0.6252433596588415,101700.0,97100.0,100700.0,101700.0,19.269107580184937,0.7732842699614182,0.0771573392382679,0.008528876710323362,0.28066270075426886,6.604322379508488,-0.14417872286622008,7.101838072943494,19.269107580184937,0.3190236843710876,-0.00024105247101770998,0.49935105244335376,0.0,0.0,0.0,1.0,0.0,1.402386978473882e-18,-9.568369488545757e-19,1.7265115789473686,0.0011257894736842117,0.00705578947368421,0.0,0.0,0.0,19.265864610672,3.688999891281128,False,True,False,True,True,False,False,1774.941793286074,3151016.6775468728,1686.0858552035552,2841498.98381055,1747.4326232833328,3053578.342860329,1770.9602759700738,3137099.47140463,-0.1946672990136573,-0.059869602436375124,9.795533551037373,0,0.0,0.026764564172365272,0.7359742029640296,0.04724614604705663
43,282,0.43000000000000027,0.22872381347833962,0.04298467716223975,0.6074271903040418,0.014279629942076018,0.3573622571872631,0.027410042720040495,0.9334543367861264,0.08570195647783975,0.7622390890093451,0.06829043850645092,1.744166391065246,0.02838026851337993,0.003301133912283675,0.32022561083839973,-0.9991408631385812,-0.04807196879140997,19.283700227737427,0.2574497759342193,0.0527724660933017,0.5884748697280884,,,,,,,,0.63313955631563,0.4265834715416321,0.49825161117573313,0.6116512585674938,101700.0,94900.0,97400.0,101700.0,19.27840256690979,0.7845312663714233,0.08146325037738339,0.010873801836086348,0.2919096970840631,6.3523397276804,-0.15091432647923292,7.006791347761867,19.27840256690979,0.3790236843710876,-0.00024105247101770998,0.49935105244335376,0.0,0.0,0.0,1.0,0.0,1.402386978473882e-18,-9.568369488545757e-19,1.8085115789473685,0.0011257894736842117,0.00705578947368421,0.0,0.0,0.0,19.300090074539185,3.700000047683716,False,True,False,True,True,False,False,1778.9552630353392,3164907.851715741,1651.0061846974247,2726225.625037534,1707.7351438123567,2917071.7498842375,1757.2733745850624,3088435.335282635,-0.2528141361248437,-0.06519363835458541,9.429934092993097,0,0.0,0.02946692140591836,0.7274441001712957,0.05808657209049308
44,283,0.4400000000000005,0.24724977786423813,0.044628293595571474,0.6081299020741919,0.015122234885084346,0.3552402430662605,0.02913417753771886,0.9341985267690723,0.09071952374095003,0.7573623328320214,0.07183331489456836,1.8363266059710832,0.03771673591530687,-0.01954030845626598,0.35569840117632223,-1.4145443537721416,-0.06276345842031172,19.29299521446228,0.2757763564586639,0.0540765672922134,0.5886175036430359,,,,,,,,0.610933393174117,0.43523326684393393,0.5042056635248214,0.5812529467515466,103100.0,92300.0,96500.0,99000.0,19.288593292236328,0.6274374780659926,0.0935331496066002,0.01275226875316389,0.13481590879789518,6.13560048442395,-0.13859568857475935,6.905036768825988,19.288593292236328,0.3790236843710876,-0.00024105247101770998,0.49935105244335376,0.0,0.0,0.0,1.0,0.0,1.402386978473882e-18,-9.568369488545757e-19,1.8085115789473685,0.0011257894736842117,0.00705578947368421,0.0,0.0,0.0,19.300090074539185,3.700000047683716,False,True,False,True,True,False,False,1787.3275311198277,3193692.469323986,1608.990847742712,2590215.0196801294,1668.0050666024738,2782053.6477283426,1749.0600567320998,3058447.3328996706,-0.27849961736409323,-0.04621129233730553,9.218777916605244,0,0.0,0.032164937287146374,0.7188883735110855,0.06076839263410598
45,284,0.4500000000000003,0.2662048318089803,0.04620602618423751,0.6085295625731467,0.01618753971955539,0.3510158782093915,0.03021726173071667,0.9357418094197859,0.09373117233257378,0.7479075672430916,0.07473843625385808,1.9062051320635796,0.044313287639082224,-0.03850178933239122,0.3782394860642562,-1.790621953160525,-0.07769829334876326,19.30318593978882,0.2947600483894348,0.0554775260388851,0.5885935425758362,,,,,,,,0.570289338982429,0.4840543033011323,0.5412750246367283,0.5285399173431609,101000.0,90100.0,94300.0,99000.0,19.302284240722656,0.4594459860991987,0.11919063665492115,0.015171040872218877,-0.03317558297817538,5.954125795856079,-0.13373170158025321,6.82500139626638,19.302284240722656,0.3790236843710876,-0.00024105247101770998,0.49935105244335376,0.0,0.0,0.0,1.0,0.0,1.402386978473882e-18,-9.568369488545757e-19,1.8085115789473685,0.0011257894736842117,0.00705578947368421,0.0,0.0,0.0,19.300090074539185,3.700000047683716,False,True,False,True,True,False,False,1779.906482530875,3167146.321420557,1575.1982661611555,2480632.0686386125,1649.7190520143395,2720631.069935286,1734.4104967343733,3006985.4315500683,-0.31006960458070587,-0.029846765721820046,8.998343269012976,0,0.0,0.03485266766867897,0.7074822927162248,0.06072141519738211
46,285,0.4600000000000005,0.2856283461093535,0.047633034327142505,0.6085590182068827,0.017598271986606503,0.34348357815949404,0.030619389583277406,0.9384944247779972,0.09449326198568408,0.7311415473906809,0.07704303925039266,1.9526738055372719,0.04802117953229747,-0.05616795044837563,0.3933522671407286,-2.1882489226716375,-0.09707991784384624,19.30318593978882,0.2947600483894348,0.0554775260388851,0.5885935425758362,,,,,,,,0.5358253587793924,0.5527292869036652,0.5917624917901997,0.47553463546760066,101000.0,90100.0,94300.0,99000.0,19.302284240722656,0.43244967817590396,0.13499351059804604,0.018500297587107403,-0.060171890757455576,5.652037690538888,-0.18214850178134329,6.821328360376906,19.302284240722656,0.3790236843710876,-0.00024105247101770998,0.49935105244335376,0.0,0.0,0.0,1.0,0.0,1.402386978473882e-18,-9.568369488545757e-19,1.8085115789473685,0.0011257894736842117,0.00705578947368421,0.0,0.0,0.0,19.300090074539185,3.700000047683716,False,True,False,True,True,False,False,1745.3792963927172,3047500.2482125615,1573.3744785620734,2474398.3393291584,1668.5993141455451,2785579.7767104227,1699.5984754740673,2889557.411007001,-0.31006960458070587,-0.029846765721820046,8.998343269012976,0,0.0,0.03485266766867897,0.7074822927162248,0.06072141519738211
47,286,0.4700000000000003,0.3056213332973445,0.04885666077462861,0.6082009133243992,0.01943505123749516,0.33179714015577505,0.030358191755150078,0.9426618252380874,0.09297616528983933,0.7051185772914527,0.07884337773070708,1.9923352940179662,0.04986768685012368,-0.08002634701099604,0.4087401638948933,-2.6763927617280117,-0.12480909851645605,19.316876888275143,0.2947600483894348,0.0554775260388851,0.5885935425758362,,,,,,,,0.5345649294015913,0.603468071480287,0.6252740627347523,0.4550642589653481,96800.0,91700.0,99000.0,93500.0,19.31858205795288,0.5269964954069238,0.10322456284765352,0.021945376174561933,0.03437492620450856,5.174562981222647,-0.2925773929634677,6.961922896614074,19.31858205795288,0.4390236843710876,-0.00024105247101770998,0.49935105244335376,0.0,0.0,0.0,1.0,0.0,1.402386978473882e-18,-9.568369488545757e-19,1.8555115789473686,0.0011257894736842117,0.00705578947368421,0.0,0.0,0.0,19.32601809501648,3.7309999465942383,False,True,False,True,True,False,False,1693.793719546412,2870910.013760329,1610.6750246554595,2595949.5841257204,1715.560684601553,2946097.367921329,1643.8279570402808,2705168.818499507,-0.827655347743256,-0.12128044326886273,8.524318770173515,0,0.0,0.03751627213915922,0.6875962697334613,0.06335128510374727
48,287,0.48000000000000054,0.32613651860447235,0.04985933250518018,0.607499544748459,0.02166412266244863,0.31607176035530105,0.02951286137404612,0.9480286383378319,0.08942993196965629,0.6700546246089629,0.08022978153218563,2.0411122482581003,0.050701397176024496,-0.11419556347485996,0.4214212272868447,-3.2134263107751275,-0.16016940355587989,19.327220678329468,0.2947600483894348,0.0554775260388851,0.5885935425758362,,,,,,,,0.5665381258316186,0.6103692517824867,0.6240204583211941,0.4803500804580656,94600.0,95800.0,102000.0,90400.0,19.32904028892517,0.6045286586318794,0.014716445750036337,0.024347060148874777,0.11190708885919959,4.689228985360386,-0.41677442111216195,7.271132143545455,19.32904028892517,0.4390236843710876,-0.00024105247101770998,0.49935105244335376,0.0,0.0,0.0,1.0,0.0,1.402386978473882e-18,-9.568369488545757e-19,1.8555115789473686,0.0011257894736842117,0.00705578947368421,0.0,0.0,0.0,19.32601809501648,3.7309999465942383,False,True,False,True,True,False,False,1651.1623106541551,2726408.7994702095,1664.9263885735472,2773942.8536526165,1759.9213712601195,3097940.8955817735,1585.5457315110975,2515165.247261974,-1.102845933285598,-0.16245575771616183,8.612129796416234,0,0.0,0.04286344531320822,0.6621190512326193,0.060542037394871136
49,288,0.4900000000000003,0.346832149324557,0.050652735978253954,0.6065514687846094,0.024109498238386727,0.29761458063027935,0.028231418436535417,0.9539639828127775,0.08440727937764095,0.6288371518968138,0.08124750926887693,2.1005499720678062,0.05055389956565002,-0.15309627760511577,0.4170517360513899,-3.6493835600119047,-0.19757651018823966,19.34363293647766,0.2947600483894348,0.0554775260388851,0.5885935425758362,,,,,,,,0.60326380442687,0.5797022788017758,0.6004630199640235,0.5335620722971186,92900.0,98000.0,100300.0,89000.0,19.338556051254272,0.5812199172756306,-0.08646092570233978,0.025250597577649345,0.08859834752580567,4.330994352988098,-0.5080921542777578,7.66174641246792,19.338556051254272,0.4390236843710876,-0.00024105247101770998,0.49935105244335376,0.0,0.0,0.0,1.0,0.0,1.402386978473882e-18,-9.568369488545757e-19,1.8555115789473686,0.0011257894736842117,0.00705578947368421,0.0,0.0,0.0,19.32601809501648,3.7309999465942383,False,True,False,True,True,False,False,1638.5350508697084,2684142.71812827,1700.7434336690008,2892168.7350681527,1774.7644276583396,3148738.469021328,1549.054287015164,2397958.9249162036,-0.9243512592252241,-0.14020335275898665,8.792438604024705,0,0.0,0.05076257965844859,0.5920017935650228,0.05759397241424317
50,289,0.5000000000000006,0.3671150940216531,0.051268713448730706,0.605473967896909,0.026500015209562543,0.2785441955001893,0.02672222767230718,0.9596857834183409,0.07868123253260134,0.5861523714573539,0.08190135125831956,2.1603311477714344,0.04919967096323907,-0.18560591135955729,0.38205260941162156,-3.8625558243767837,-0.22993331655344007,19.353148698806763,0.2947600483894348,0.0554775260388851,0.5885935425758362,,,,,,,,0.6165835633398067,0.5420486369711364,0.5846714307343619,0.5833708792258774,96200.0,97100.0,101000.0,88500.0,19.349473476409912,0.5039197957277388,-0.13409943879566769,0.025170390465779874,0.011298227223011244,4.060814128808007,-0.5685630812059614,7.96126715427283,19.349473476409912,0.5020236843710876,-0.00024105247101770998,0.49935105244335376,0.0,0.0,0.0,1.0,0.0,1.402386978473882e-18,-9.568369488545757e-19,1.8725115789473685,0.0011257894736842117,0.00705578947368421,0.0,0.0,0.0,19.3576021194458,3.7309999465942383,False,True,False,True,True,False,False,1654.2716489998106,2737136.2168399994,1699.719083833416,2888613.17354438,1758.120397437661,3090697.7935974263,1544.5484363994044,2384452.3875905443,-1.0094923801621865,-0.15674228280220082,8.864352585907017,0,0.0,0.05347552378103969,0.5571960351176101,0.05492106458389666
51,290,0.5100000000000003,0.38637469647378564,0.0517504061739673,0.6043618040271067,0.02857157250755353,0.260937208375024,0.025213208959862732,0.9646034069107579,0.0730441576925338,0.546593170924238,0.08218333632825105,2.209707466457416,0.04686866694538632,-0.2052671741903783,0.31527740151174766,-3.8745585249889434,-0.2521174546811202,19.3640661239624,0.2947600483894348,0.0554775260388851,0.5885935425758362,,,,,,,,0.6048087707852136,0.5286978627450147,0.5954359454878467,0.6091574274369556,95200.0,95500.0,99700.0,89600.0,19.358065843582157,0.4785421777041605,-0.10137531658924415,0.024801516236143795,-0.014079389639740751,3.8238874190974372,-0.6166002020537332,8.081987244692716,19.358065843582157,0.5020236843710876,-0.00024105247101770998,0.49935105244335376,0.0,0.0,0.0,1.0,0.0,1.402386978473882e-18,-9.568369488545757e-19,1.8725115789473685,0.0011257894736842117,0.00705578947368421,0.0,0.0,0.0,19.3576021194458,3.7160000801086426,False,True,False,True,True,False,False,1677.030652931383,2813138.5141522083,1674.824696851044,2804988.0155741805,1731.9481139952159,2999126.381377343,1562.4370249318904,2441841.727553305,-0.9650945939417639,-0.14151001190859847,8.9269576798243,0,0.0,0.05906093723368653,0.5212162547893544,0.04969849119285136
52,291,0.5200000000000006,0.4042881710284255,0.052144149223912264,0.603250737660562,0.030167355053131287,0.24596637676625213,0.023886536132996655,0.9685142774276213,0.06806344733256015,0.5127892991293701,0.08209553971994567,2.245802279897552,0.044165662146614285,-0.21502121714409028,0.22901638096508192,-3.8224090620683757,-0.2626967304378097,19.372658491134644,0.2947600483894348,0.0554775260388851,0.5885935425758362,,,,,,,,0.5886115532089918,0.5541210803357205,0.6272659729612065,0.6093423133118734,96800.0,95500.0,99000.0,90900.0,19.370140075683597,0.5716018925203318,-0.024278218077226223,0.023916239878573945,0.07898032363436541,3.6045195986360667,-0.6502705099293865,8.175358772799632,19.370140075683597,0.5020236843710876,-0.00024105247101770998,0.49935105244335376,0.0,0.0,0.0,1.0,0.0,1.402386978473882e-18,-9.568369488545757e-19,1.8725115789473685,0.0011257894736842117,0.00705578947368421,0.0,0.0,0.0,19.3576021194458,3.7160000801086426,False,True,False,True,True,False,False,1685.911944831164,2842390.6320829047,1657.021200397408,2744689.1686275704,1724.4745651789308,2973053.4886890817,1584.2522822860842,2510565.1479739435,-0.9709630907429134,-0.14011009218211234,8.958192018179991,0,0.0,0.06194441687483047,0.48749330255035034,0.047132451649821286
53,292,0.5300000000000004,0.42103928041768246,0.05249153657560549,0.6021026109462048,0.0312818867912182,0.2334957508005107,0.022820013956902183,0.9715865503803015,0.06391478192469313,0.4845419479961864,0.08165616370517245,2.273714852277097,0.041432216720101486,-0.22248022838070364,0.1424663158634569,-3.8372329376822973,-0.26444208368966193,19.372658491134644,0.2947600483894348,0.0554775260388851,0.5885935425758362,,,,,,,,0.586817346680681,0.6086657298334792,0.6605906488477049,0.5959598931193734,96800.0,95500.0,99000.0,90900.0,19.370140075683597,0.7603109738505748,0.03701801631536908,0.02142868714907959,0.26768940097690924,3.34915828601479,-0.6668448384950942,8.482085774389216,19.370140075683597,0.5020236843710876,-0.00024105247101770998,0.49935105244335376,0.0,0.0,0.0,1.0,0.0,1.402386978473882e-18,-9.568369488545757e-19,1.8725115789473685,0.0011257894736842117,0.00705578947368421,0.0,0.0,0.0,19.3576021194458,3.7160000801086426,False,True,False,True,True,False,False,1677.8842796991862,2815187.4261993645,1669.2836051248426,2786477.829046841,1749.0461010073877,3060648.280418225,1596.9507986722429,2549964.318056714,-0.9709630907429134,-0.14011009218211234,8.958192018179991,0,0.0,0.06194441687483047,0.48749330255035034,0.047132451649821286
54,293,0.5400000000000006,0.4373459135193114,0.05282210728725974,0.6008147712961791,0.032031040967048084,0.2222762419370775,0.021965729619816046,0.974209829249924,0.060371534892081434,0.45924896956147054,0.08088959097945968,2.3009649479195096,0.03845072465719385,-0.23255350686769266,0.0751534599504382,-3.959288879538838,-0.26353348333263993,19.384732723236084,0.2947600483894348,0.0554775260388851,0.5885935425758362,,,,,,,,0.6007867567822691,0.6630960983334951,0.6798290215609646,0.5862522278510784,94600.0,97100.0,103100.0,92600.0,19.388578414916992,0.9263969190884185,0.04727503143514247,0.016949116562279758,0.4337753456468253,3.0325129410000726,-0.6861777446380104,8.998545182862694,19.388578414916992,0.5650236843710875,-0.00024105247101770998,0.49935105244335376,0.0,0.0,0.0,1.0,0.0,1.402386978473882e-18,-9.568369488545757e-19,1.8535115789473686,0.0011257894736842117,0.00705578947368421,0.0,0.0,0.0,19.396136045455933,3.7160000801086426,False,True,False,True,True,False,False,1667.4909427291473,2780455.705879346,1710.6667631138325,2928778.32490032,1792.9722784301546,3217450.3921830165,1599.9715630308397,2559421.8624880696,-1.5026042573344118,-0.052557212847228474,9.485227548209807,0,0.0,0.0648321407313318,0.45348452256935673,0.044542706663907625
55,294,0.5500000000000004,0.4542912508094021,0.05314833184009114,0.599246446549746,0.03257190026688894,0.210523207367823,0.021173729669559438,0.9768166274406107,0.05693597753070868,0.43315829140453205,0.07980544327987575,2.3320784526866083,0.03484297219391474,-0.24510907946764,0.03995928506811048,-4.145551542352902,-0.2662168136231586,19.396729946136475,0.2947600483894348,0.0554775260388851,0.5885935425758362,,,,,,,,0.6191476694258191,0.6919671124564479,0.6861972991282118,0.5934533972856559,96200.0,102400.0,105600.0,91500.0,19.40244436264038,0.9252584212503108,0.00815493814812303,0.011891826373502896,0.43263685580819333,2.701043789875971,-0.7346726656353684,9.507488742896172,19.40244436264038,0.5650236843710875,-0.00024105247101770998,0.49935105244335376,0.0,0.0,0.0,1.0,0.0,1.402386978473882e-18,-9.568369488545757e-19,1.8535115789473686,0.0011257894736842117,0.00705578947368421,0.0,0.0,0.0,19.396136045455933,3.720999956130981,False,True,False,True,True,False,False,1670.8015301376745,2792053.2593227075,1761.4143438448418,3104570.74363994,1829.2045901094048,3346508.3568730913,1602.4897650170724,2568441.099304745,-1.683567829175166,-0.100801418885749,9.875901945372737,0,0.0,0.06502319403132309,0.41392315003261493,0.041947451819526034
56,295,0.5600000000000006,0.4730324696805548,0.05346446816778777,0.5972515247112291,0.03301933274317686,0.19652950399685706,0.020245812645791148,0.9797326088245998,0.05303380450536265,0.40270989200785423,0.07837937968599665,2.367168349137305,0.030591837006746166,-0.2579724491934441,0.03416018474953185,-4.327539392087223,-0.2740303023220275,19.396729946136475,0.2947600483894348,0.0554775260388851,0.5885935425758362,,,,,,,,0.6321981956870485,0.6994909863223384,0.6966288025617611,0.6188598700175962,96200.0,102400.0,105600.0,91500.0,19.40244436264038,0.7314468324900825,-0.05373978982421169,0.008554762868049619,0.23882527603877868,2.3502411554888054,-0.8120467601995821,9.934828320685769,19.40244436264038,0.5650236843710875,-0.00024105247101770998,0.49935105244335376,0.0,0.0,0.0,1.0,0.0,1.402386978473882e-18,-9.568369488545757e-19,1.8535115789473686,0.0011257894736842117,0.00705578947368421,0.0,0.0,0.0,19.396136045455933,3.720999956130981,False,True,False,True,True,False,False,1689.7964748859704,2856375.292505569,1803.2113773584545,3250704.485576849,1844.7570240071818,3401254.0733245173,1613.8169301439884,2605795.8077516574,-1.683567829175166,-0.100801418885749,9.875901945372737,0,0.0,0.06502319403132309,0.41392315003261493,0.041947451819526034
57,296,0.5700000000000004,0.49448766085971596,0.05374962484985511,0.5947091054403583,0.03340162187435162,0.17909484563286426,0.01899794137506063,0.9830810984590301,0.048195962110976605,0.3654737457158581,0.07655726374442384,2.4039178892167103,0.025943325808730495,-0.2701157210740362,0.037113932306349566,-4.458092231272851,-0.28172449457501375,19.41703701019287,0.2947600483894348,0.0554775260388851,0.5885935425758362,,,,,,,,0.6402065364322976,0.7131172514868037,0.7260266333889873,0.65249540087042,99000.0,106000.0,106400.0,94900.0,19.422020196914676,0.5032659517434891,-0.10043492717181113,0.008009465720640652,0.010644386874112094,1.9433517747212674,-0.877128855770817,10.37324172779832,19.422020196914676,0.6250236843710876,-0.00024105247101770998,0.49935105244335376,0.0,0.0,0.0,1.0,0.0,1.402386978473882e-18,-9.568369488545757e-19,1.8045115789473685,0.0011257894736842117,0.00705578947368421,0.0,0.0,0.0,19.43170714378357,3.720999956130981,False,True,False,True,True,False,False,1713.2086336712023,2935300.179084114,1835.6880946747,3367369.0911329417,1855.5330742341769,3441220.5809965287,1635.876046431431,2676726.3484022496,-1.9404478008301798,-0.11624551006603279,10.612429570543348,0,0.0,0.06809461750561259,0.33381859625443744,0.03668021536410064
58,297,0.5800000000000006,0.5190874268433491,0.053973923991186126,0.591546684075113,0.03367147314951892,0.15775073267061787,0.01731467402820602,0.9867528263456464,0.04218916310011307,0.32060794399453857,0.07429616321565186,2.4402597705208757,0.02069465165468653,-0.281170963498035,0.022847247428068443,-4.524380289727669,-0.28062001064485176,19.41703701019287,0.2947600483894348,0.0554775260388851,0.5885935425758362,,,,,,,,0.6506493950104894,0.7461160611076771,0.7679770302044227,0.6840401973584651,99000.0,106000.0,106400.0,94900.0,19.422020196914676,0.43185556523020735,-0.1063865926554249,0.008687568845191666,-0.0607660270989695,1.5459788856905963,-0.8876112305222132,10.832151427747453,19.422020196914676,0.6250236843710876,-0.00024105247101770998,0.49935105244335376,0.0,0.0,0.0,1.0,0.0,1.402386978473882e-18,-9.568369488545757e-19,1.8045115789473685,0.0011257894736842117,0.00705578947368421,0.0,0.0,0.0,19.43170714378357,3.720999956130981,False,True,False,True,True,False,False,1732.1342826619998,2999415.9585666265,1873.141545660872,3508249.085514835,1888.225639656936,3567049.8795106094,1666.410174254661,2775652.6773967277,-1.9404478008301798,-0.11624551006603279,10.612429570543348,0,0.0,0.06809461750561259,0.33381859625443744,0.03668021536410064
59,298,0.5900000000000004,0.5466489537070794,0.05410554425438381,0.5877537071227091,0.03375593933671051,0.13285346403445086,0.015184241386989143,0.9904443106338917,0.035082695005899646,0.26898499359315364,0.07162488750375737,2.475673298096866,0.013809205067570853,-0.2884543372610915,-0.02155021792054662,-4.535746522662627,-0.2653339431867585,19.436612844467163,0.2947600483894348,0.0554775260388851,0.5885935425758362,,,,,,,,0.6715737208235656,0.7785332660893832,0.7978943178775484,0.7138654404241244,100700.0,111900.0,114100.0,99000.0,19.44424510002136,0.5277175695448466,-0.08461129536671787,0.007302281104379443,0.03509596858543726,1.1767655889750452,-0.8660497640249891,11.328450691324369,19.44424510002136,0.6250236843710876,-0.00024105247101770998,0.49935105244335376,0.0,0.0,0.0,1.0,0.0,1.402386978473882e-18,-9.568369488545757e-19,1.8045115789473685,0.0011257894736842117,0.00705578947368421,0.0,0.0,0.0,19.43170714378357,3.663000106811523,False,True,False,True,True,False,False,1751.027559241193,3065507.658848207,1925.7893478762244,3711933.071030368,1949.8783365077206,3806811.9164951732,1707.4018227732277,2914048.989842129,-2.0826390132238473,0.001899337507789034,11.554172305674477,0,0.0,0.06838664778418675,0.24718148609090637,0.02858107825517768
60,299,0.6000000000000006,0.5764046663306325,0.05411628888774768,0.5833843104284637,0.03360762773641502,0.10556017832352417,0.012705505022523716,0.9937636269517812,0.027242496977887127,0.21305256074334425,0.06867758021136737,2.510165494862899,0.004275786103700446,-0.28660845975371846,-0.08881028148080014,-4.505606595081441,-0.23864244395839845,19.436612844467163,0.2947600483894348,0.0554775260388851,0.5885935425758362,,,,,,,,0.706069313287178,0.7882770397477182,0.801805032015229,0.7498916836592494,100700.0,111900.0,114100.0,99000.0,19.44424510002136,0.6214835301117162,-0.07515911044559553,0.002224007207635381,0.1288619796519458,0.6368283698089037,-0.8813649716136283,12.050973682112556,19.44424510002136,0.6250236843710876,-0.00024105247101770998,0.49935105244335376,0.0,0.0,0.0,1.0,0.0,1.402386978473882e-18,-9.568369488545757e-19,1.8045115789473685,0.0011257894736842117,0.00705578947368421,0.0,0.0,0.0,19.43170714378357,3.663000106811523,False,True,False,True,True,False,False,1780.3272213097014,3170563.3610097193,1986.2364328009235,3948958.7661939533,2020.2142690284818,4083883.460789707,1763.481613767583,3111649.21852081,-2.0826390132238473,0.001899337507789034,11.554172305674477,0,0.0,0.06838664778418675,0.24718148609090637,0.02858107825517768
61,300,0.6100000000000004,0.607194232409697,0.053984679745361114,0.5785487680465076,0.03322361852306317,0.0775854369202995,0.010062327379656842,0.9963811724023216,0.019242313314042914,0.15627458018067386,0.06565892438421848,2.54203727455125,-0.007375265891229616,-0.273135830867366,-0.15879258322992856,-4.4485494068773495,-0.21011333881819105,19.458837747573853,0.2947600483894348,0.0554775260388851,0.5885935425758362,,,,,,,,0.7456591187482845,0.7922767543283068,0.7998701327063679,0.7897544249432129,105300.0,118100.0,119500.0,106000.0,19.461354970932007,0.5753364125177385,-0.09479807227786441,-0.004124333288756612,0.08271492963437102,-0.14444512433194093,-0.9439072270577364,13.02150912155358,19.461354970932007,0.6850236843710876,-0.00024105247101770998,0.49935105244335376,0.0,0.0,0.0,1.0,0.0,1.402386978473882e-18,-9.568369488545757e-19,1.7215115789473685,0.0011257894736842117,0.00705578947368421,0.0,0.0,0.0,19.460182189941406,3.663000106811523,False,True,False,True,True,False,False,1821.1175395096868,3318119.0655284687,2036.433721500947,4147175.4101608307,2072.9207637980944,4295292.136404419,1830.292692369274,3353280.5076833228,-2.35075144045258,-0.013979564600737238,13.030809958444014,0,0.0,0.06583519582602888,0.15959929199028164,0.017626222215078757
62,301,0.6200000000000002,0.637785011469183,0.053697705433643696,0.5733975019829315,0.03262605500318922,0.05065183324970994,0.007471572546208491,0.9981553526015172,0.011701676532266317,0.1020179632994952,0.06274736621349487,2.567467682079159,-0.018890031573805754,-0.25438855440815755,-0.21055543698763396,-4.392161012755653,-0.18833685585566518,19.475947618484497,0.2947600483894348,0.0554775260388851,0.5885935425758362,,,,,,,,0.7702973794717606,0.8310807728542985,0.8274836406731112,0.8133866694434109,106800.0,118600.0,120700.0,108300.0,19.4727201461792,0.424415345239579,-0.11144929246838498,-0.007773301076989096,-0.06820618027377214,-0.8004816476776317,-0.981007628037199,13.839218796462916,19.4727201461792,0.6850236843710876,-0.00024105247101770998,0.49935105244335376,0.0,0.0,0.0,1.0,0.0,1.402386978473882e-18,-9.568369488545757e-19,1.7215115789473685,0.0011257894736842117,0.00705578947368421,0.0,0.0,0.0,19.460182189941406,3.663000106811523,False,True,False,True,True,False,False,1862.5359164831434,3469370.1980814496,2069.043217724755,4277759.205612154,2100.8755103193043,4411135.674307822,1891.786447267008,3579716.3147485,-1.8369777263129035,-0.046858810454842637,13.740271745530109,0,0.0,0.06318376763563938,0.07138458176553372,0.014891381206943577
63,302,0.6300000000000004,0.6672116806235273,0.05325363528933802,0.5681080488028605,0.031830227225684286,0.025810475205890117,0.005125011540567379,0.9991468311820423,0.0051046309332492225,0.05223632957403242,0.0600031667033598,2.583016883433349,-0.02827807639954467,-0.24140172921218803,-0.23319051503009325,-4.36983197908169,-0.17284187711017332,19.48731279373169,0.988053560256958,0.084962710738182,0.632458508014679,,,,,,,,0.7684104693341345,0.9051375078918025,0.8854558211011616,0.80815043248557,108700.0,120700.0,121500.0,111500.0,19.48658132553101,0.29437607113954545,-0.08789405357867898,-0.008160512343867863,-0.1982456407090319,-1.0770212290302639,-0.9473335334159307,14.212759082545354,19.48658132553101,0.7410236843710876,-0.00024105247101770998,0.49935105244335376,0.0,0.0,0.0,1.0,0.0,1.402386978473882e-18,-9.568369488545757e-19,1.6095115789473686,0.0011257894736842117,0.00705578947368421,0.0,0.0,0.0,19.50156307220459,3.5840001106262207,False,True,False,True,True,False,False,1893.8395434722843,3585764.2264890997,2098.713213815281,4402847.354216743,2119.86456294541,4493691.720218054,1934.418995339114,3740325.6877687196,-1.6706623541529626,0.05076439017449563,14.307565360018677,0,0.0,0.06320764475320993,0.024383030648048275,0.009364239747668165
64,303,0.6400000000000002,0.6949770620204527,0.05266742593904205,0.562883938763646,0.030835817756866713,0.0030869498672832286,0.0031491157188159387,0.9995147353360888,-0.0003198018803573921,0.00682538867818364,0.05736302061523138,2.5879415889902058,-0.035887263015247146,-0.23605019145937964,-0.23334831030914804,-4.381219470336232,-0.1544584627669855,19.48731279373169,0.988053560256958,0.084962710738182,0.632458508014679,,,,,,,,0.7587908522876805,0.9541026443476611,0.9257678668540125,0.7976966050054632,108700.0,120700.0,121500.0,111500.0,19.48658132553101,0.24459772809081415,-0.04500772931213677,-0.00868436225942536,-0.24802407339930851,-1.4011497064750635,-0.8995771871829322,14.44946765354554,19.48658132553101,0.7410236843710876,-0.00024105247101770998,0.49935105244335376,0.0,0.0,0.0,1.0,0.0,1.402386978473882e-18,-9.568369488545757e-19,1.6095115789473686,0.0011257894736842117,0.00705578947368421,0.0,0.0,0.0,19.50156307220459,3.5840001106262207,False,True,False,True,True,False,False,1913.2912749169805,3660159.123513113,2145.8300578221883,4607964.502895875,2148.6180466465767,4618931.8559616245,1959.7592223338881,3839579.0772100175,-1.6706623541529626,0.05076439017449563,14.307565360018677,0,0.0,0.06320764475320993,0.024383030648048275,0.009364239747668165
65,304,0.6500000000000005,0.7210199231203346,0.05197696850823569,0.5579612648639484,0.02965227079646906,-0.01821954487013791,0.0015923741493998943,0.99939294342411,-0.004607800544942743,-0.03573187699580848,0.05473798724633284,2.5835059951001558,-0.04394946576072381,-0.22453961013710924,-0.23181490956881828,-4.375623495438569,-0.12513306714006775,19.501173973083496,0.988053560256958,0.084962710738182,0.632458508014679,,,,,,,,0.7736197675547741,0.9249818728508609,0.9066199875883209,0.8210980880525846,110700.0,127700.0,126300.0,112800.0,19.50568008422852,0.23957081854312062,-0.05019454162216652,-0.01196560721306154,-0.25305067046812174,-2.2300351499392894,-0.9191329218419027,14.943066095099399,19.50568008422852,0.7410236843710876,-0.00024105247101770998,0.49935105244335376,0.0,0.0,0.0,1.0,0.0,1.402386978473882e-18,-9.568369488545757e-19,1.6095115789473686,0.0011257894736842117,0.00705578947368421,0.0,0.0,0.0,19.50156307220459,3.5840001106262207,False,True,False,True,True,False,False,1924.7057349938973,3704768.3278476857,2209.9336935940073,4889073.036486753,2188.4359290111975,4791704.3917151615,1978.4681107055062,3915027.0571690113,-1.8126730894153638,0.0731083840887764,14.914792060608333,0,0.0,0.060445542588900614,-0.01158078471237535,0.0010651627657020592
66,305,0.6600000000000007,0.7455176548433968,0.0512445766730148,0.5536088262535567,0.028330634359261215,-0.03881097217168671,0.0004328848866914614,0.9988447808376261,-0.007981678549211592,-0.07690076109791917,0.05213306064194712,2.5711238349082177,-0.05404547064157689,-0.1901922664162486,-0.24526595394562847,-4.310397304831621,-0.08697454410740213,19.52027273178101,0.988053560256958,0.084962710738182,0.632458508014679,,,,,,,,0.8121288297023839,0.8447113273191003,0.8501678287202112,0.8765887285694052,111100.0,131300.0,128800.0,115400.0,19.514101028442383,0.24767176703355037,-0.12743271965268504,-0.016506110626644945,-0.24494922611848932,-3.2142661216039197,-0.9954743605702006,15.52099542142233,19.514101028442383,0.7410236843710876,-0.00024105247101770998,0.49935105244335376,0.0,0.0,0.0,1.0,0.0,1.402386978473882e-18,-9.568369488545757e-19,1.6095115789473686,0.0011257894736842117,0.00705578947368421,0.0,0.0,0.0,19.50156307220459,3.5840001106262207,False,True,False,True,True,False,False,1931.966311689389,3732958.676303045,2268.3229832923003,5146549.067914514,2226.7271076020465,4958987.150371603,1996.4103361805057,3986724.886888546,-2.83827122502573,-0.02403371010682387,15.93828774900458,0,0.0,0.0576651450607098,-0.05859860715277973,0.0010649075864989552
67,306,0.6700000000000005,0.7687069221763699,0.050547167283082194,0.5501148034466882,0.026962919414786735,-0.0588833791878516,-0.00040159095994220776,0.9979005899170279,-0.010733160792549212,-0.11709912944095137,0.049672473612848385,2.552422187219736,-0.06541406877628442,-0.1324205555374338,-0.2696108078616069,-4.225321236361919,-0.05096262210477926,19.528693675994877,0.988053560256958,0.084962710738182,0.632458508014679,,,,,,,,0.832729587598209,0.7921838283034388,0.817418294361218,0.9123377177798397,111100.0,131300.0,128800.0,115400.0,19.514101028442383,0.3050429136740201,-0.21103699470348847,-0.01891468966377514,-0.18757826774862413,-3.7963318772621637,-1.033978727669998,15.795627464218015,19.514101028442383,0.7910236843710876,-0.00024105247101770998,0.49935105244335376,0.0,0.0,0.0,1.0,0.0,1.402386978473882e-18,-9.568369488545757e-19,1.4755115789473685,0.0011257894736842117,0.00705578947368421,0.0,0.0,0.0,19.543777227401733,3.562999963760376,False,True,False,True,True,False,False,1939.3794583082267,3761440.42810107,2301.839092965911,5296158.259245712,2255.9024043380978,5088395.488839177,2012.619816861127,4050876.8437756514,-1.4153642934296635,-0.11762302556861925,16.126632825138685,0,0.0,0.05205766583474768,-0.14689450147254396,-0.001698541394866161
68,307,0.6800000000000007,0.7908575778015524,0.04995264635582421,0.5477655890858566,0.02563526185932045,-0.07827295676218975,-0.0010010338192763825,0.9966018139259034,-0.013101643065989847,-0.156032261878776,0.0474863553636557,2.5302549331282056,-0.07574538749052095,-0.06867484676415363,-0.28653795198455534,-4.218709196644347,-0.027492096500867525,19.528693675994877,0.988053560256958,0.084962710738182,0.632458508014679,,,,,,,,0.8055671440716959,0.8008490454030648,0.8264159246406053,0.88871691220657,111100.0,131300.0,128800.0,115400.0,19.514101028442383,0.44794074188501115,-0.22360435317788907,-0.018099711357332147,-0.044681685809187,-4.181911376671053,-0.9732362445739673,15.791612468913403,19.514101028442383,0.7910236843710876,-0.00024105247101770998,0.49935105244335376,0.0,0.0,0.0,1.0,0.0,1.402386978473882e-18,-9.568369488545757e-19,1.4755115789473685,0.0011257894736842117,0.00705578947368421,0.0,0.0,0.0,19.543777227401733,3.562999963760376,False,True,False,True,True,False,False,1950.8182182969715,3805671.3075922956,2310.6187979854835,5336915.096147651,2276.1946559707403,5179208.834403703,2026.9393650103766,4108222.346592677,-1.4153642934296635,-0.11762302556861925,16.126632825138685,0,0.0,0.05205766583474768,-0.14689450147254396,-0.001698541394866161
69,308,0.6900000000000005,0.8123757440767466,0.04948740154086591,0.5468218460875517,0.02436430420419266,-0.09705956390433927,-0.0014319469872196263,0.9949792818260945,-0.015165803294763759,-0.19395538302759763,0.04553150375667535,2.507144064652857,-0.08333906305878751,-0.016196490363827188,-0.2862269288992377,-4.331888738576009,-0.01827502891696199,19.55681204795837,0.988053560256958,0.084962710738182,0.632458508014679,,,,,,,,0.7514022660828159,0.8237349579365948,0.8278771285432632,0.8266733334678693,112800.0,131900.0,131000.0,117400.0,19.556315183639526,0.619260029330114,-0.1751992810679951,-0.01624550064328211,0.12663679439008307,-4.941207403729873,-0.8450449336030976,15.711360912114646,19.556315183639526,0.8390236843710875,-0.00024105247101770998,0.49935105244335376,0.0,0.0,0.0,1.0,0.0,1.402386978473882e-18,-9.568369488545757e-19,1.3155115789473686,0.0011257894736842117,0.00705578947368421,0.0,0.0,0.0,19.56429433822632,3.562999963760376,False,True,False,True,True,False,False,1963.3317662582322,3854225.204955481,2301.5211592948895,5296779.459799163,2279.8386252970654,5195603.721572784,2041.2384831948866,4166489.9301292123,-1.9531103143984079,0.05375907406897984,16.54192781503552,0,0.0,0.04642066965171503,-0.2264376206312757,-0.001694409977381266
70,309,0.7000000000000003,0.833890577150114,0.04910631976168541,0.5474872956301415,0.0230665402379635,-0.11601416068514758,-0.0017085727289001054,0.9929782122590612,-0.016790973874531823,-0.232609133744051,0.04348777077119587,2.481213224506968,-0.08859521286133543,0.02603560534409662,-0.27644072705114664,-4.487374879413819,-0.015556325689531478,19.55681204795837,0.988053560256958,0.084962710738182,0.632458508014679,,,,,,,,0.7066788700072435,0.807069706803654,0.7782935191234646,0.7727236447472849,112800.0,131900.0,131000.0,117400.0,19.556315183639526,0.7111348936935363,-0.13971474728211267,-0.01616947263870404,0.21851354690374958,-6.08667951195679,-0.7105110428556074,15.40667827512416,19.556315183639526,0.8390236843710875,-0.00024105247101770998,0.49935105244335376,0.0,0.0,0.0,1.0,0.0,1.402386978473882e-18,-9.568369488545757e-19,1.3155115789473686,0.0011257894736842117,0.00705578947368421,0.0,0.0,0.0,19.56429433822632,3.562999963760376,False,True,False,True,True,False,False,1965.3323195862865,3862162.328292325,2274.0005542606486,5172705.754481057,2249.8360367414816,5064062.46568029,2052.406026608219,4212197.528978178,-1.9531103143984079,0.05375907406897984,16.54192781503552,0,0.0,0.04642066965171503,-0.2264376206312757,-0.001694409977381266
71,310,0.7100000000000005,0.8561879940995589,0.04867917872789661,0.5498661698717712,0.021592267642518887,-0.13641717027285347,-0.0018049502515082771,0.9904144949400683,-0.01769895891428365,-0.2748464921559887,0.040843859457049936,2.4449721355896044,-0.0937211274220975,0.07532152683227479,-0.26923733242288367,-4.570859385980685,-0.007470167548532147,19.570907831192017,0.988053560256958,0.084962710738182,0.632458508014679,,,,,,,,0.6695843012369532,0.764915718388219,0.7081996123298967,0.7356924630466497,111100.0,126100.0,123000.0,117200.0,19.57683229446411,0.6975575082890351,-0.14723479289998562,-0.018400464975928718,0.20493972725667453,-7.118455859881816,-0.5991755772242157,14.606682220200845,19.57683229446411,0.8390236843710875,-0.00024105247101770998,0.49935105244335376,0.0,0.0,0.0,1.0,0.0,1.402386978473882e-18,-9.568369488545757e-19,1.3155115789473686,0.0011257894736842117,0.00705578947368421,0.0,0.0,0.0,19.56429433822632,3.546999931335449,False,True,False,True,True,False,False,1946.9774655385418,3791648.2567867977,2228.112528566474,4966857.134352422,2184.490541756499,4779441.590492989,2050.241182796388,4203550.059933825,-3.368594997148939,0.16281019549401143,15.622706716876126,0,0.0,0.04358173300546411,-0.27275163299696364,-0.004441061727354355
72,311,0.7200000000000003,0.8799721344092087,0.0480052317391393,0.5539203199527488,0.019812928265765785,-0.1593080731050012,-0.0017150984005021644,0.9870285933824733,-0.017689796415013122,-0.3230548679417101,0.03717614400363149,2.390679102644631,-0.10089287862228821,0.1455382697791192,-0.2687407361454151,-4.565257201049243,0.014860725819573919,19.570907831192017,0.988053560256958,0.084962710738182,0.632458508014679,,,,,,,,0.612694042929673,0.7489884619435957,0.6835101068307261,0.6898172534502922,111100.0,126100.0,123000.0,117200.0,19.57683229446411,0.6523633120657024,-0.15202303013662183,-0.02093207889351032,0.15974494681725024,-7.652076186851446,-0.5302943967167636,13.528116019214968,19.57683229446411,0.8390236843710875,-0.00024105247101770998,0.49935105244335376,0.0,0.0,0.0,1.0,0.0,1.402386978473882e-18,-9.568369488545757e-19,1.3155115789473686,0.0011257894736842117,0.00705578947368421,0.0,0.0,0.0,19.56429433822632,3.546999931335449,False,True,False,True,True,False,False,1911.8908486961493,3657055.11462497,2178.2892352536905,4745582.809027442,2112.206544302595,4465538.059733187,2026.4836509017587,4107608.0010941513,-3.368594997148939,0.16281019549401143,15.622706716876126,0,0.0,0.04358173300546411,-0.27275163299696364,-0.004441061727354355
73,312,0.7300000000000005,0.905565108695721,0.046862517783440055,0.5594508274143357,0.017711642300417666,-0.18471293144872067,-0.0015266354443796036,0.9826317214841286,-0.016935960305688284,-0.3774884782654292,0.03249049325464976,2.317501804061622,-0.11031144267860447,0.23200600049068723,-0.27713412724292363,-4.574486532572767,0.052414483525401734,19.5914249420166,0.988053560256958,0.084962710738182,0.632458508014679,,,,,,,,0.538854371705637,0.7663846880539871,0.7142149458137854,0.6337429766969934,105300.0,122200.0,116700.0,112400.0,19.58919477462769,0.6239820735691897,-0.1124051377186113,-0.022013261515658918,0.13135549415298484,-7.734889948938326,-0.5179011889033068,12.758818893147723,19.58919477462769,0.8800236843710876,-0.00024105247101770998,0.49935105244335376,0.0,0.0,0.0,1.0,0.0,1.402386978473882e-18,-9.568369488545757e-19,1.1375115789473684,0.0011257894736842117,0.00705578947368421,0.0,0.0,0.0,19.60893082618713,3.546999931335449,False,True,False,True,True,False,False,1873.5481585640343,3510974.8629252063,2146.5372475817835,4606785.64107756,2067.13626922478,4269330.172045408,1986.1391795503419,3945548.78556384,-2.2369769487747835,0.005931881473980105,14.432809534513108,0,0.0,0.032333895561557906,-0.40712119431598986,-0.004407227095075433
74,313,0.7400000000000003,0.9326959556922407,0.04509033304017451,0.5661246506202176,0.01542016463611338,-0.21144921245802664,-0.0014422101594473702,0.9772662733888504,-0.016152078657347455,-0.43576240736782534,0.02741709572082308,2.232534007436721,-0.11984001837952904,0.3175326894648931,-0.3048641067751647,-4.701075374283338,0.0985769803224656,19.5914249420166,0.988053560256958,0.084962710738182,0.632458508014679,,,,,,,,0.48592135587671037,0.7761091822479393,0.7421674705534601,0.6103212224169534,105300.0,122200.0,116700.0,112400.0,19.58919477462769,0.573050662805413,-0.056528187252603376,-0.02348099088792752,0.08041735462155403,-7.755016262790967,-0.5188946833968487,12.402947652292529,19.58919477462769,0.8800236843710876,-0.00024105247101770998,0.49935105244335376,0.0,0.0,0.0,1.0,0.0,1.402386978473882e-18,-9.568369488545757e-19,1.1375115789473684,0.0011257894736842117,0.00705578947368421,0.0,0.0,0.0,19.60893082618713,3.546999931335449,False,True,False,True,True,False,False,1838.7853620084438,3381115.976730244,2139.5092525196287,4578209.00495519,2049.904254181029,4196749.203665869,1948.813584024691,3797046.204795681,-2.2369769487747835,0.005931881473980105,14.432809534513108,0,0.0,0.032333895561557906,-0.40712119431598986,-0.004407227095075433
75,314,0.7500000000000006,0.9604588063555145,0.04269148151387577,0.5735462760144129,0.013174682778050695,-0.23768559923051052,-0.0016937788388093633,0.9712513139066409,-0.016410415421386364,-0.49393082403297517,0.023067210630737002,2.1456178217901907,-0.1266776116523221,0.3895849024267721,-0.36309997896649493,-4.917972374192279,0.14592901121602164,19.603787422180176,0.988053560256958,0.084962710738182,0.632458508014679,,,,,,,,0.46995733621352864,0.7701257181396105,0.7128383602976859,0.6542979603644786,105300.0,122200.0,116700.0,112400.0,19.58919477462769,0.4741023949545805,-0.04303451269328788,-0.030417918521632167,-0.018519836941219926,-8.067532056301323,-0.45023943645561093,11.849402574376914,19.58919477462769,0.8800236843710876,-0.00024105247101770998,0.49935105244335376,0.0,0.0,0.0,1.0,0.0,1.402386978473882e-18,-9.568369488545757e-19,1.1375115789473684,0.0011257894736842117,0.00705578947368421,0.0,0.0,0.0,19.60893082618713,3.615000009536743,False,True,False,True,True,False,False,1799.8896094139532,3240190.294524599,2140.0721636827548,4581827.7008963255,2024.6008762212548,4101454.9840289955,1936.2484315265974,3749227.81379786,-0.8760038475698506,-0.06463828349383949,14.578701288779115,0,0.0,0.026697993771339336,-0.4938837689704726,-0.004378037883989111
76,315,0.7600000000000003,0.9874193700238311,0.03992558271867576,0.5813555837216092,0.011200733485383033,-0.26190536743110754,-0.002350914204968779,0.9650256966954646,-0.018486377539306008,-0.548498498165361,0.020468971576901442,2.0648977220560396,-0.1299108551058033,0.44656158034686233,-0.44192177705994096,-5.08949140546666,0.19591436566981904,19.612948656082157,0.988053560256958,0.084962710738182,0.632458508014679,,,,,,,,0.45575410109409276,0.806284338810733,0.6158007799156748,0.7417509567640111,99000.0,124000.0,116700.0,107900.0,19.621468782424927,0.40363940077179083,-0.08207740345641103,-0.04510005900048736,-0.08895763957543808,-8.616773850790686,-0.2957956501838377,10.743060218372044,19.621468782424927,0.8800236843710876,-0.00024105247101770998,0.49935105244335376,0.0,0.0,0.0,1.0,0.0,1.402386978473882e-18,-9.568369488545757e-19,1.1375115789473684,0.0011257894736842117,0.00705578947368421,0.0,0.0,0.0,19.60893082618713,3.615000009536743,False,True,False,True,True,False,False,1744.7037697173837,3045484.4706254406,2131.749921878698,4543519.919182324,1961.3005053264997,3859622.252950146,1954.1243912046418,3823384.4121138416,-1.9336823404048102,0.08603531257977681,13.573003591965044,0,0.0,0.023893966990033447,-0.5378718124500491,-0.004361036476962362
77,316,0.7700000000000006,1.011809446705504,0.03735090459278418,0.5893250426356156,0.009559694520486021,-0.2836934731385339,-0.0031019279388069185,0.9588623486102337,-0.02187662324887052,-0.5981809993973809,0.019674616027366785,1.9962074638550251,-0.13190949264295176,0.4901535192246492,-0.5036348162458226,-5.118595403570642,0.26411865816120383,19.636061429977417,0.988053560256958,0.084962710738182,0.632458508014679,,,,,,,,0.4007869074112712,0.9230976707442295,0.4663062323718026,0.8057912396327727,93500.0,122400.0,101700.0,116700.0,19.63171100616455,0.44571205192733676,-0.13054013109941998,-0.06042106155460265,-0.046884262079457534,-9.06583451745965,-0.13175146013030203,9.574262319367985,19.63171100616455,0.9140236843710876,-0.00024105247101770998,0.49935105244335376,0.0,0.0,0.0,1.0,0.0,1.402386978473882e-18,-9.568369488545757e-19,0.9535115789473684,0.0011257894736842117,0.00705578947368421,0.0,0.0,0.0,19.6257848739624,3.615000009536743,False,True,False,True,True,False,False,1668.5520737437241,2785658.215592943,2131.594044535723,4539876.04191817,1869.0028422675716,3506351.713011343,1986.2516226045825,3952245.1129849935,-2.0996823362514467,0.20170946843236368,12.846252013458185,0,0.0,0.018416701151396025,-0.5894283528529491,-0.0016538108672720254
78,317,0.7800000000000004,1.031782439558193,0.0357698923580622,0.5974232167727289,0.00800127005149239,-0.3039250189983414,-0.003147511704108269,0.9526571553683378,-0.02394651997262205,-0.6444449820744286,0.018855972023521107,1.9416020432392371,-0.13661104426079768,0.5195648983986932,-0.5151909179309138,-5.0479029277628715,0.3793927754836402,19.636061429977417,0.988053560256958,0.084962710738182,0.632458508014679,,,,,,,,0.30947555569462737,1.042790276425607,0.3142607413329428,0.7879441549312011,93500.0,122400.0,101700.0,116700.0,19.63171100616455,0.5434346199046556,-0.1598756956083715,-0.06376680653970389,0.05078499886086653,-9.307381038696,-0.045839806148164394,8.84137141196297,19.63171100616455,0.9140236843710876,-0.00024105247101770998,0.49935105244335376,0.0,0.0,0.0,1.0,0.0,1.402386978473882e-18,-9.568369488545757e-19,0.9535115789473684,0.0011257894736842117,0.00705578947368421,0.0,0.0,0.0,19.6257848739624,3.615000009536743,False,True,False,True,True,False,False,1575.7035924672396,2483672.341688691,2183.2654934062107,4769195.463700263,1774.1226454217203,3151561.9366149697,2011.7914323446525,4050362.301382605,-2.0996823362514467,0.20170946843236368,12.846252013458185,0,0.0,0.018416701151396025,-0.5894283528529491,-0.0016538108672720254
79,318,0.7900000000000006,1.0457509729871886,0.03605317024010013,0.6058073505997897,0.005884035909341504,-0.32429346731935155,-0.0013464358102011453,0.9459372665700507,-0.019849767008813454,-0.6905845219022668,0.013903457689919227,1.892105248122876,-0.14473524965014975,0.5351369375643723,-0.5051651652291208,-5.006762422690224,0.5811422628363244,19.64630365371704,0.988053560256958,0.084962710738182,0.632458508014679,,,,,,,,0.22282632459850402,1.0107423875642025,0.2689534345677478,0.6679559634507835,82400.0,134800.0,97100.0,114100.0,19.651666164398197,0.5397454779981786,-0.18887942000435265,-0.056140740238961526,0.04704253839702257,-9.571015139882496,-0.0967896979419905,8.320183622975694,19.651666164398197,0.9140236843710876,-0.00024105247101770998,0.49935105244335376,0.0,0.0,0.0,1.0,0.0,1.402386978473882e-18,-9.568369488545757e-19,0.9535115789473684,0.0011257894736842117,0.00705578947368421,0.0,0.0,0.0,19.6257848739624,3.67300009727478,False,True,False,True,True,False,False,1477.7102792934013,2183417.821681891,2301.478858213015,5303819.568519931,1686.6238427585256,2837607.956679992,2024.0031792196176,4092031.3334098523,-2.2545810336675576,-0.007507216415202064,12.413333422591542,0,0.0,0.004998274952408293,-0.681912490280147,0.0010410713444688855
80,319,0.8000000000000004,1.0528172124259216,0.038863077635502216,0.6147251452917606,0.002242246311565243,-0.34644822471995435,0.0033468075342135265,0.9380604451735503,-0.0037033131073023594,-0.7398820462639168,-0.0009457538305000575,1.820696592479595,-0.15000597639580257,0.5423518267383176,-0.5882026451583083,-5.072403220322764,0.9060382165698451,19.64630365371704,0.988053560256958,0.084962710738182,0.632458508014679,,,,,,,,0.16257028026562267,0.7587086567988122,0.42213196028162997,0.4708159573697351,82400.0,134800.0,97100.0,114100.0,19.651666164398197,0.3870030689496191,-0.23407509948764185,-0.07167925095379848,-0.10563731338100338,-9.989629816165676,-0.26644438315424396,7.6110548955882065,19.651666164398197,0.9140236843710876,-0.00024105247101770998,0.49935105244335376,0.0,0.0,0.0,1.0,0.0,1.402386978473882e-18,-9.568369488545757e-19,0.9535115789473684,0.0011257894736842117,0.00705578947368421,0.0,0.0,0.0,19.6257848739624,3.67300009727478,False,True,False,True,True,False,False,1389.2424300531638,1932851.6437634234,2426.652745857884,5881179.498635229,1618.7236817311482,2600978.209869306,2020.572996466343,4075169.6002921658,-2.2545810336675576,-0.007507216415202064,12.413333422591542,0,0.0,0.004998274952408293,-0.681912490280147,0.0010410713444688855
81,320,0.8100000000000006,1.0532037207425429,0.04436175482610176,0.6243514889557475,-0.0039433059412341395,-0.37115361169936634,0.011301370384773867,0.928494332717328,0.029091230032437163,-0.7937984715053019,-0.031259516190917616,1.6921168572700187,-0.14215015374776174,0.5483383066304018,-0.8991611847756827,-5.181420682626397,1.3432624473161303,19.666258811950684,1.0077000856399536,0.0856587216258049,0.6409715414047241,,,,,,,,0.11658272913557256,0.4044154584522288,0.7180384034022873,0.2655325103547157,71300.0,142200.0,92000.0,114100.0,19.67423176765442,0.24351482824270726,-0.2664546500841563,-0.16445532589019513,-0.24895072521255684,-10.353372335739458,-0.3606808388427223,6.779225225220522,19.67423176765442,0.9430236843710875,-0.00024105247101770998,0.49935105244335376,0.0,0.0,0.0,1.0,0.0,1.402386978473882e-18,-9.568369488545757e-19,0.7605115789473684,0.0011257894736842117,0.00705578947368421,0.0,0.0,0.0,19.661693811416622,3.67300009727478,False,True,False,True,True,False,False,1312.0921167652825,1734951.3097511132,2457.2210240738614,6039802.860981411,1621.8339324187828,2622178.723651229,1983.9270842217227,3939164.5808914383,-2.490708330968924,-0.29143046065587874,12.009481650460355,0,0.0,-0.014029748579655875,-0.7848495931472139,0.017389026145169444
82,321,0.8200000000000004,1.0484612881203126,0.05203871611472116,0.634631508996423,-0.0133010825906943,-0.3978174287683684,0.021809906162862377,0.9171088826105692,0.07928849971320445,-0.8509861546188454,-0.0798113698546648,1.4932707401756073,-0.11650970159454489,0.555141184625696,-1.4512879274536081,-5.150020893180406,1.7782682885268326,19.666258811950684,1.0077000856399536,0.0856587216258049,0.6409715414047241,,,,,,,,0.09377947745218282,0.14869669550343637,0.9776065781663027,0.1361058207973178,71300.0,142200.0,92000.0,114100.0,19.67423176765442,0.2989040391472593,-0.255942557869843,-0.3440642278398224,-0.1935281055090619,-10.425008353711032,-0.13159795276536482,6.08465031941281,19.67423176765442,0.9430236843710875,-0.00024105247101770998,0.49935105244335376,0.0,0.0,0.0,1.0,0.0,1.402386978473882e-18,-9.568369488545757e-19,0.7605115789473684,0.0011257894736842117,0.00705578947368421,0.0,0.0,0.0,19.661693811416622,3.67300009727478,False,True,False,True,True,False,False,1224.647055349808,1514984.7633755673,2345.4746032922485,5551121.714345394,1753.0662230678495,3119586.796454028,1895.3733891216064,3612567.081217303,-2.490708330968924,-0.29143046065587874,12.009481650460355,0,0.0,-0.014029748579655875,-0.7848495931472139,0.017389026145169444
83,322,0.8300000000000006,1.0412186506003749,0.06077914934554529,0.6452101269151692,-0.025615913610353248,-0.42455724349432966,0.03318429454123707,0.9044300827384081,0.14237109056095565,-0.9074591316821867,-0.14435268279139749,1.2559690488348014,-0.08074968263571752,0.5578878462888592,-2.0379569521688157,-4.767003963082562,2.0090319055361303,19.68882441520691,1.023616909980774,0.0864426717162132,0.6479880809783936,,,,,,,,0.15847149534535104,0.08181687089532445,1.0789532834066335,0.12422941817824998,63800.0,114100.0,123200.0,95200.0,19.69160008430481,0.5307817981659128,-0.2312607866722195,-0.5101319956290327,0.03799995229389855,-10.297116262349176,0.3946226636396189,5.539412568846399,19.69160008430481,0.9660236843710875,-0.00024105247101770998,0.49935105244335376,0.0,0.0,0.0,1.0,0.0,1.402386978473882e-18,-9.568369488545757e-19,0.5695115789473684,0.0011257894736842117,0.00705578947368421,0.0,0.0,0.0,19.7033052444458,3.63100004196167,False,True,False,True,True,False,False,1113.959350964617,1219694.9542587409,2151.073097600214,4677413.037951329,1990.1315166588831,4029124.3869876917,1767.3681704595451,3141510.399986418,-1.5987071954101513,0.859140831520773,11.390965641729311,0,0.0,-0.06097331205365031,-0.9088550808077596,0.097399202449189
84,323,0.8400000000000004,1.0344467049906871,0.06918853822774478,0.6554906607641424,-0.039617862578082905,-0.44875669753616054,0.0433819537765487,0.8917207284053188,0.20922509885822602,-0.9577789655509811,-0.21701818678898596,1.0399519401558983,-0.04971694682679552,0.5495511774741574,-2.311512550525862,-3.90634282614214,1.878671694850175,19.68882441520691,1.023616909980774,0.0864426717162132,0.6479880809783936,,,,,,,,0.3619537455057619,0.1289463001938869,1.0513157604946344,0.19793462080591814,63800.0,114100.0,123200.0,95200.0,19.69160008430481,0.7075159563866289,-0.2371139197746751,-0.4926095605100742,0.21432162412210337,-10.208736030215162,0.896159720559729,5.044308611931884,19.69160008430481,0.9660236843710875,-0.00024105247101770998,0.49935105244335376,0.0,0.0,0.0,1.0,0.0,1.402386978473882e-18,-9.568369488545757e-19,0.5695115789473684,0.0011257894736842117,0.00705578947368421,0.0,0.0,0.0,19.7033052444458,3.63100004196167,False,True,False,True,True,False,False,1034.0469052551805,1002278.029103342,1976.1132857165906,3898009.992577945,2214.9546492898457,4913210.661700515,1635.9989423652912,2673650.6548265135,-1.5987071954101513,0.859140831520773,11.390965641729311,0,0.0,-0.06097331205365031,-0.9088550808077596,0.097399202449189
85,324,0.8500000000000006,1.0305294972045251,0.07604061180809832,0.6648021442504982,-0.05320241111365592,-0.4678757204420624,0.05080921427760019,0.880727107234135,0.26876544917289513,-0.9967727962754106,-0.28601378547340506,0.8876424619590797,-0.03285880632436982,0.5271084931236949,-2.022047076229697,-2.618717314875154,1.412587678455997,19.7061927318573,1.030712008476257,0.0868336856365203,0.6509609222412109,,,,,,,,0.6503347314382708,0.17203852828605004,0.9841441653555955,0.28482147340293806,63000.0,106400.0,132200.0,85700.0,19.699087858200077,0.6429391613823215,-0.24043008291035917,-0.21535138899601797,0.15020095717002066,-10.116422718291751,1.1015871395872627,4.685098544177,19.699087858200077,0.9660236843710875,-0.00024105247101770998,0.49935105244335376,0.0,0.0,0.0,1.0,0.0,1.402386978473882e-18,-9.568369488545757e-19,0.5695115789473684,0.0011257894736842117,0.00705578947368421,0.0,0.0,0.0,19.7033052444458,3.63100004196167,False,True,False,True,True,False,False,1099.3667527112661,1211980.4946550387,1856.0498975862727,3413531.404083715,2307.0779493393457,5290587.253200378,1519.9376220041195,2300068.5101555004,-1.1302461374001265,0.8180535550224712,10.976823896105245,0,0.0,-0.11966370616502307,-0.9849677793954804,0.10921875402768637
86,325,0.8600000000000004,1.0305917211194233,0.08063808783400242,0.6726010877056292,-0.06406247703463581,-0.4802046040876063,0.05480886380468793,0.8730953703334425,0.311321209832712,-1.02116614425913,-0.33915968390305873,0.7958877580325373,-0.027652672083438815,0.49301574762184286,-1.2191202520507043,-1.1421098901691198,0.7930533741169045,19.713680505752563,1.0370006561279297,0.0868594571948051,0.6538035869598389,,,,,,,,0.8938315155169017,0.1703629159140429,0.9207063184802641,0.33576089923360736,63000.0,106400.0,132200.0,85700.0,19.699087858200077,0.3916178069310303,-0.15031096684828987,0.19036069212657883,-0.09923131745351965,-9.765790502868498,1.0031670523701184,4.608748018577931,19.699087858200077,0.9660236843710875,-0.00024105247101770998,0.49935105244335376,0.0,0.0,0.0,1.0,0.0,1.402386978473882e-18,-9.568369488545757e-19,0.5695115789473684,0.0011257894736842117,0.00705578947368421,0.0,0.0,0.0,19.7033052444458,3.63100004196167,False,True,False,True,True,False,False,1371.6020766437218,2053437.7610097877,1744.9551515169892,3047561.1207290934,2247.4726772304866,5052929.926334102,1411.9915662665774,1997563.3657898582,-0.8485678485092039,0.5936860161649176,11.016569353332581,0,0.0,-0.14222106093960038,-1.009797602497801,0.1095055851741028
87,326,0.8700000000000002,1.0343721422249605,0.08293586381650093,0.678617190969354,-0.07047735484185397,-0.4853246244904075,0.055601771118411115,0.8697133978307084,0.33134142325900284,-1.0305892962659815,-0.36788735339546313,0.7279029843078768,-0.024680672639065718,0.4514146663518141,-0.2328341155425529,0.20363620145064615,0.18619409908404164,19.730435848236084,1.0475804805755615,0.0867549404501915,0.6582685708999634,,,,,,,,1.0131022867093469,0.15444031317772944,0.8676656816014319,0.35368653633375746,117900.0,84700.0,117900.0,71600.0,19.734436511993408,0.17069180043283033,0.0532277431129759,0.49218652350407377,-0.3177097667305153,-9.165584982801557,0.7703268223215363,4.76469101464585,19.734436511993408,0.9820236843710876,-0.00024105247101770998,0.49935105244335376,0.0,0.0,0.0,1.0,0.0,1.402386978473882e-18,-9.568369488545757e-19,0.39451157894736844,0.0011257894736842117,0.00705578947368421,0.0,0.0,0.0,19.726481437683105,3.663000106811523,False,True,False,True,True,False,False,1761.647052401468,3283133.8179973736,1599.3979311782323,2594691.700497972,2126.63351241288,4543795.61278992,1313.1604434607952,1737541.119996653,0.031113932561846802,-0.06728937235606325,10.155304069286576,0,0.0,-0.15345947526527168,-1.0161322611895636,0.10958904324966552
88,327,0.8800000000000004,1.0406035141814525,0.08341759247082514,0.6828842515543511,-0.07189809805173561,-0.4841777918775678,0.053852277405181045,0.870346173408823,0.3284661487630718,-1.027640387849917,-0.3699315348501245,0.6468387122532507,-0.017000437702132203,0.40449606623003975,0.541848964342775,1.162068426010189,-0.3756106387102403,19.730435848236084,1.0475804805755615,0.0867549404501915,0.6582685708999634,,,,,,,,1.0302664952146416,0.15091298557977922,0.8462607626677672,0.3660218168552004,117900.0,84700.0,117900.0,71600.0,19.734436511993408,0.13675152419713366,0.2751423158982492,0.5761280481758636,-0.3505063753946682,-8.665480084546349,0.5778291550401135,5.017008805439275,19.734436511993408,0.9820236843710876,-0.00024105247101770998,0.49935105244335376,0.0,0.0,0.0,1.0,0.0,1.402386978473882e-18,-9.568369488545757e-19,0.39451157894736844,0.0011257894736842117,0.00705578947368421,0.0,0.0,0.0,19.726481437683105,3.663000106811523,False,True,False,True,True,False,False,2093.9586787243525,4388024.718966577,1436.2682678512638,2085779.4187551686,2059.1206215873794,4242802.961030106,1246.7945794052735,1560342.4921086864,0.031113932561846802,-0.06728937235606325,10.155304069286576,0,0.0,-0.15345947526527168,-1.0161322611895636,0.10958904324966552
89,328,0.8900000000000002,1.0476315267635756,0.08282913046999922,0.6856607126257899,-0.06905692180266412,-0.47876249304399005,0.050209917417402994,0.8737829141144736,0.3067745484335792,-1.0170078570295509,-0.3494948850073638,0.5401040847336006,-0.004449074666729504,0.35301281673153934,0.8715712751635345,1.611295117767905,-0.9394357946445988,19.7490291595459,1.0517017841339111,0.0868041217327117,0.6598413586616516,,,,,,,,0.9892314985544877,0.14967791475653985,0.8804051120605043,0.383416575856686,126300.0,74800.0,121500.0,70100.0,19.7390193939209,0.27678202328715457,0.4139872380862392,0.5170980573512094,-0.21161954387619092,-8.54240251961752,0.491995460822006,5.362796344606606,19.7390193939209,0.9820236843710876,-0.00024105247101770998,0.49935105244335376,0.0,0.0,0.0,1.0,0.0,1.402386978473882e-18,-9.568369488545757e-19,0.39451157894736844,0.0011257894736842117,0.00705578947368421,0.0,0.0,0.0,19.726481437683105,3.663000106811523,False,True,False,True,True,False,False,2266.640755644121,5045420.855738539,1301.718905797662,1683445.6245595363,2093.704802903841,4379912.235579334,1227.8338313593747,1504906.87048224,0.29613034117173687,-0.22903984652280274,10.04387192699321,0,0.0,-0.14200200150052447,-0.9943617243752968,0.10378470840279141
90,329,0.9000000000000005,1.0539861836342803,0.08190177896951875,0.6872998736499931,-0.06354825169168442,-0.4715510284325541,0.045078966050043044,0.8783900808359518,0.2727158713828076,-1.00399893738428,-0.31487550348711874,0.4197321198049484,0.008910497870600604,0.2986018318853475,0.7720507893603631,1.5587008224522336,-1.5180715855613727,19.75361204147339,1.0549676418304443,0.0869915038347244,0.6609610915184021,,,,,,,,0.8822605325926136,0.13769173461406023,0.9454349021845927,0.3932776155691085,130400.0,68800.0,126300.0,71800.0,19.751665592193604,0.48225718075859014,0.4621524773109805,0.45264885146383543,-0.008591943625959733,-8.741605232171992,0.4777157700615182,5.8019206937396905,19.751665592193604,0.9920236843710876,-0.00024105247101770998,0.49935105244335376,0.0,0.0,0.0,1.0,0.0,1.402386978473882e-18,-9.568369488545757e-19,0.2365115789473684,0.0011257894736842117,0.00705578947368421,0.0,0.0,0.0,19.76995038986206,3.663000106811523,False,True,False,True,True,False,False,2304.6998923740607,5271540.315338902,1212.7136211352106,1453802.3644553465,2196.7324956752163,4829093.616283242,1237.9934737559417,1529785.6927298545,0.46035902967556286,-0.20565822282498358,10.477201917271646,0,0.0,-0.12790473820596365,-0.9788225326535408,0.09806632046629127
91,330,0.9100000000000007,1.0587313804875125,0.08116151201940114,0.6881405119407471,-0.057071957691119626,-0.4648060717078051,0.03865068513665613,0.8827254566892975,0.23263795481358301,-0.993042780095436,-0.2747480314567137,0.30607112737070036,0.01955901406808088,0.2446296840087331,0.4431818622765684,1.1273479443442307,-2.0658744199902737,19.766258239746094,1.0568740367889404,0.0869343876838684,0.6616300344467163,,,,,,,,0.6913501834817235,0.13840714258687747,0.964452268210866,0.3815847697503841,131300.0,65100.0,131000.0,72300.0,19.75882339477539,0.6567283146063939,0.47645983961568705,0.4509124818183556,0.1639901103940928,-9.027328280082386,0.5011869623933474,6.153979520003206,19.75882339477539,0.9920236843710876,-0.00024105247101770998,0.49935105244335376,0.0,0.0,0.0,1.0,0.0,1.402386978473882e-18,-9.568369488545757e-19,0.2365115789473684,0.0011257894736842117,0.00705578947368421,0.0,0.0,0.0,19.76995038986206,3.609999895095825,False,True,False,True,True,False,False,2270.925633038769,5182111.088521306,1143.9678630584533,1311539.1609701482,2300.953530515516,5295154.9253098555,1245.5017177374407,1552233.8021861105,0.3465105320145385,-0.10467524086008606,10.949436453135565,0,0.0,-0.11385058598052296,-0.9632976504933146,0.08406373181264203
92,331,0.9200000000000005,1.0615508496862234,0.080859292776017,0.6884509220668792,-0.05069271775309199,-0.46003280551093334,0.031072467256874712,0.8859088937351941,0.1908567507426539,-0.986705393471624,-0.23482893750790337,0.2121918541455555,0.02682173035783246,0.1956916382273855,0.13260818033483474,0.5371304979095032,-2.5294860798925662,19.77341604232788,1.057902216911316,0.0869348868727684,0.6618740558624268,,,,,,,,0.46541559454308223,0.19830236231611229,0.874027995501319,0.3464111516028817,128500.0,61900.0,134800.0,69300.0,19.77036666870117,0.7356080506587255,0.49029878815950556,0.4961385183122535,0.24241371839419962,-9.230077470406886,0.5780803985465295,6.227671062425551,19.77036666870117,0.9920236843710876,-0.00024105247101770998,0.49935105244335376,0.0,0.0,0.0,1.0,0.0,1.402386978473882e-18,-9.568369488545757e-19,0.2365115789473684,0.0011257894736842117,0.00705578947368421,0.0,0.0,0.0,19.76995038986206,3.609999895095825,False,True,False,True,True,False,False,2187.977591844199,4819561.655199218,1067.114162390648,1149276.8085239215,2354.487875327536,5534379.695408961,1238.3912119902452,1535831.3039765458,0.26129880227321767,-0.047787761478001345,11.184112473588751,0,0.0,-0.10269592959634395,-0.956942770450372,0.06464189636504372
93,332,0.9300000000000007,1.0626249201896778,0.0810049505189304,0.6884110504083819,-0.044468703815132404,-0.45775614519075275,0.022598330401234202,0.8876773971348945,0.14892065045645891,-0.9854735025718677,-0.1963572445281142,0.13804870454441134,0.03205070155066871,0.1554743243796503,0.028441199554311257,0.04161124447424706,-2.8690319887534086,19.784959316253666,1.0579581260681152,0.0870550796389579,0.6619007587432861,,,,,,,,0.2989995890431546,0.33433165895585604,0.69084259211977,0.2943588078078837,116300.0,58600.0,134500.0,70800.0,19.782488346099854,0.6787020922681147,0.4763455948870683,0.5333172515167235,0.18592024639610033,-9.269829547731627,0.6953446308555993,6.026702363187083,19.782488346099854,0.9980236843710876,-0.00024105247101770998,0.49935105244335376,0.0,0.0,0.0,1.0,0.0,1.402386978473882e-18,-9.568369488545757e-19,0.10951157894736842,0.0011257894736842117,0.00705578947368421,0.0,0.0,0.0,19.79747676849365,3.609999895095825,False,True,False,True,True,False,False,2055.8079568570847,4237192.797227987,999.9227293900165,989526.4437249426,2333.5065183098714,5436184.0123657985,1225.5174505145865,1501131.1886355367,0.03272086617145309,0.11883574777770489,11.092706777250859,0,0.0,-0.08882580615208242,-0.9536536227768783,0.04526726858316218
