,Unnamed: 0,t,x,y,z,qx,qy,qz,qw,yaw,pitch,roll,vx,vy,vz,wx,wy,wz,ros_timestamp,x_poses,y_poses,z_poses,qx_poses,qy_poses,qz_poses,qw_poses,yaw_poses,pitch_poses,roll_poses,m1_thrust,m2_thrust,m3_thrust,m4_thrust,m1_erpm,m2_erpm,m3_erpm,m4_erpm,ros_timestamp_motors,thrust,torque_roll,torque_pitch,torque_yaw,ax,ay,az,ros_timestamp_image_accel,x_r,y_r,z_r,qx_r,qy_r,qz_r,qw_r,yaw_r,pitch_r,roll_r,vx_r,vy_r,vz_r,wx_r,wy_r,wz_r,ros_timestamp_r,Vbat,can_be_armed,is_armed,auto_arm,can_fly,is_flying,is_tumbled,is_locked,m1_rads,m1_rads2,m2_rads,m2_rads2,m3_rads,m3_rads2,m4_rads,m4_rads2,ax_body,ay_body,az_body,lag_samples,lag_seconds,rx,ry,rz
0,244,3.908149388904591e-17,0.0387784508323433,0.03959990972390302,0.5723547289057316,0.008840195173508963,0.001104522886023049,0.0008288655912956259,0.9999599711790068,0.00021662622086110253,0.0020684925098465017,0.01447522511625764,-0.005384296757273156,0.017256969321816994,0.023543466954898444,0.06239162210922923,0.04031577944302052,-0.03875090582151708,55.13264298439026,0.0423003993928432,0.0432329177856445,0.5483364462852478,,,,,,,,0.6452515401698122,0.5780775086484221,0.6235405134446204,0.6608680659023201,100000.0,96800.0,99000.0,97100.0,55.13264298439026,0.5494522104834806,-0.05811794352744962,0.003995898077766019,-0.4770960029758461,0.03710853207748564,-0.232973173917434,9.556242707944163,55.13264298439026,0.03395105279214019,0.020970526476350712,0.49997842086440636,0.0,0.0,0.0,1.0,0.0,1.402386978473882e-18,-9.568369488545757e-19,0.00013526315789473713,3.368421052631582e-05,-7.947368421052609e-05,0.0,0.0,0.0,55.13264298439026,3.6050000190734863,False,True,False,True,True,False,False,1745.3252094148704,3046159.0753901787,1689.4547985907504,2854251.1322999187,1727.8742328890203,2985547.953399012,1694.7186460587827,2872071.2933833944,0.03622217951155332,-0.04803683912117257,9.55891237180772,0,0.0,0.0176852060414466,0.0020632565197305354,0.0016610541931228419
1,245,0.01000000000000027,0.03875193222245192,0.03959971284495422,0.5728519504544873,0.009429964128069897,0.002066422803667784,0.0008277964698692263,0.9999530591114486,0.00024093259363199357,0.003987282240438584,0.01566200587141855,-0.002133541083106576,0.01329598749743545,0.02602941736527531,0.07490058583179356,0.03520585665077687,-0.0250404441154045,55.14118790626526,0.0423657298088073,0.0432374849915504,0.5480906963348389,,,,,,,,0.6720102785721913,0.5177696003032033,0.5892464335820802,0.6954789335673542,100700.0,95500.0,100000.0,98000.0,55.14118790626526,0.4877208397231472,0.07187521300134724,0.005461866970395992,-0.1654696088581061,0.017204748112952212,-0.23586362620948775,9.651270828886826,55.14118790626526,-4.894720785981513e-05,-2.9473523649288753e-05,0.49997842086440636,0.0,0.0,0.0,1.0,0.0,1.402386978473882e-18,-9.568369488545757e-19,0.00013526315789473713,3.368421052631582e-05,-7.947368421052609e-05,0.0,0.0,0.0,55.14118790626526,3.6050000190734863,False,True,False,True,True,False,False,1755.7005698847743,3081699.7469449057,1645.6161710589986,2705591.5765069462,1715.8211839879855,2942269.530096273,1734.7700910871724,3008619.1820317903,0.007473904451637526,-0.042518526783181465,9.648553645585043,0,0.0,0.020452500635434082,0.004830449062614653,0.0016610651182953876
2,246,0.020000000000000056,0.03872527348991103,0.03960952652815107,0.5732034355815615,0.010102138401971638,0.0023065303545139913,0.0008104429595891936,0.9999459834909286,0.00021116181067523727,0.004461870035764942,0.01700776890203221,4.453639148660916e-05,0.009941602044882173,0.024278711853091245,0.12370570777545814,-0.095137226282028,-0.01878432462630525,55.15091395378113,0.0423657298088073,0.0432374849915504,0.5480906963348389,,,,,,,,0.6463342063069415,0.5608323116409865,0.6203496765504515,0.6537919687073884,100700.0,93800.0,98400.0,100700.0,55.15091395378113,0.4974817846805456,0.12546520492422267,0.006851557006936144,0.047906804103653854,0.06500628352576213,-0.20805370027690356,9.676496393098184,55.15091395378113,-4.894720785981513e-05,-2.9473523649288753e-05,0.49997842086440636,0.0,0.0,0.0,1.0,0.0,1.402386978473882e-18,-9.568369488545757e-19,0.00013526315789473713,3.368421052631582e-05,-7.947368421052609e-05,0.0,0.0,0.0,55.14118790626526,3.6050000190734863,False,True,False,True,True,False,False,1761.9291880577498,3102834.3464737837,1622.4237970661663,2625923.922477565,1707.4906615619016,2911658.4966708543,1755.0770036722186,3077682.851910837,0.030736414341392848,0.01373893357660122,9.665374875846132,0,0.0,0.020452500635434082,0.004830449062614653,0.0016610651182953876
3,247,0.030000000000000287,0.03870687119336124,0.039632064647015776,0.5733119525074133,0.010911220011420752,0.0015234683558926938,0.0007759282294698676,0.9999390092687721,0.00011666447431128401,0.0028906664923906934,0.018619749803633068,0.00093406397967187,0.007303362500934352,0.018894554570759912,0.2020862938980893,-0.3114730982809133,-0.01856780397150675,55.1631395816803,0.0425302572548389,0.0432509258389472,0.5476362109184265,,,,,,,,0.5696220591179897,0.6926128614722633,0.7115571570370947,0.5466778643928785,99000.0,93500.0,97700.0,100000.0,55.1631395816803,0.5646103568420717,0.03332680611790183,0.00681313798507197,0.13228200050485076,0.14321605134874804,-0.18491417317718786,9.664360474067237,55.1631395816803,-4.894720785981513e-05,-2.9473523649288753e-05,0.49997842086440636,0.0,0.0,0.0,1.0,0.0,1.402386978473882e-18,-9.568369488545757e-19,0.03313526315789474,3.368421052631582e-05,-7.947368421052609e-05,0.0,0.0,0.0,55.17145800590515,3.6050000190734863,False,True,False,True,True,False,False,1751.1993426716945,3066619.12996409,1648.4348153945439,2716684.6939658625,1725.916506632443,2978104.215676129,1736.3411118934819,3015336.100739076,0.100793484846697,0.04214363130328719,9.70094424496157,0,0.0,0.020452500635434082,0.004830449062614653,0.0016610651182953876
4,248,0.04000000000000008,0.038714282327942086,0.03966034525329393,0.5731545900372826,0.011860093762670219,9.142052031497102e-07,0.0007460483976731454,0.9999293883004405,9.576040081899196e-06,-0.0001587997411488196,0.020506001054077003,0.0010923449720173664,0.005058036540252557,0.014599145524631388,0.26238929540831846,-0.39131138197417364,-0.01562606785268428,55.17145800590515,0.0425426214933395,0.0431875064969062,0.5473341941833496,,,,,,,,0.4993650119027232,0.7962243207867429,0.7894508647810438,0.46194181073225454,101000.0,97100.0,101000.0,97400.0,55.17145800590515,0.596963725170893,-0.18451888064355737,0.004524069800420141,0.10796581569010023,0.10121424999642001,-0.2184319948375622,9.756898487906458,55.17145800590515,-4.894720785981513e-05,-2.9473523649288753e-05,0.49997842086440636,0.0,0.0,0.0,1.0,0.0,1.402386978473882e-18,-9.568369488545757e-19,0.03313526315789474,3.368421052631582e-05,-7.947368421052609e-05,0.0,0.0,0.0,55.17145800590515,3.6050000190734863,False,True,False,True,True,False,False,1713.2687004746444,2938808.0534937796,1733.0904322791948,3015172.7893272405,1789.2852544036327,3209304.1695777774,1677.710137323783,2820348.9508202546,0.09339860611923931,0.01271508719227532,9.76589627238753,0,0.0,0.023219697720776748,0.002063271761847085,0.0016610664640069343
5,249,0.05000000000000031,0.03877180868495172,0.03967723033986979,0.5727798594055185,0.01288810831460279,-0.0013874224021814872,0.000760510481409367,0.9999156931196532,-3.825320400069748e-06,-0.0029399631635799476,0.022551876915276173,0.0011755479496324615,0.0027667010648312045,0.014938478692134993,0.2603131376897719,-0.09336152806460163,-0.004365627364896315,55.182528495788574,0.0425907298922538,0.0430941805243492,0.5472565293312073,,,,,,,,0.49325495624419446,0.7827819880602312,0.7896409423694996,0.46990679486998005,94300.0,106800.0,108300.0,90900.0,55.182528495788574,0.5190247314494224,-0.36958692042674374,0.001967885856000674,0.0010880218974281299,-0.14334273940604883,-0.30230011027453,10.030194654774984,55.182528495788574,-4.894720785981513e-05,-2.9473523649288753e-05,0.49997842086440636,0.0,0.0,0.0,1.0,0.0,1.402386978473882e-18,-9.568369488545757e-19,0.03313526315789474,3.368421052631582e-05,-7.947368421052609e-05,0.0,0.0,0.0,55.17145800590515,3.6050000190734863,False,True,False,True,True,False,False,1661.5255600919622,2764030.039388354,1837.1581100316944,3384375.8495019116,1874.4149262522883,3520816.644989294,1610.2099890403788,2596204.3820805866,-0.06240068178161457,-0.028387867135215628,9.944999473102687,0,0.0,0.025986822013633292,-0.0007039078789448917,0.001661062751227873
6,250,0.060000000000000095,0.038904542321647244,0.03965882179200135,0.5722861365384192,0.013886228651372753,-0.001412150192242339,0.000859833095150611,0.9999022148053903,0.00019638909800934385,-0.0029954511094022755,0.024549139990482024,0.0014941503411965086,2.7956545968777012e-05,0.019026223164614466,0.19533228303470823,0.6236593101260309,0.010237061475803003,55.191821813583374,0.0428115837275981,0.0430085845291614,0.5469237565994263,,,,,,,,0.5534305659415191,0.6802737872107785,0.7213680785779282,0.5551821716460238,92000.0,110700.0,112800.0,89300.0,55.191821813583374,0.3509833739538166,-0.3479823756273463,0.0023059710126774485,-0.15403428262366428,-0.42117991253514264,-0.3833778930733978,10.334376981315344,55.191821813583374,0.0019510527921401848,-2.9473523649288753e-05,0.49997842086440636,0.0,0.0,0.0,1.0,0.0,1.402386978473882e-18,-9.568369488545757e-19,0.11813526315789473,3.368421052631582e-05,-7.947368421052609e-05,0.0,0.0,0.0,55.20369720458984,3.578000068664551,False,True,False,True,True,False,False,1631.8031522837214,2662598.8850865653,1895.0246360685737,3589184.472421799,1927.3036037525753,3713532.6023812164,1577.3035723398586,2485961.7536461866,-0.3934706978186592,-0.0590850866163784,10.435193753764118,0,0.0,0.028753830937623803,-0.0034710629406424754,0.0016610531960072222
7,251,0.06999999999999988,0.03913127529495937,0.03958134563948684,0.5717934976907171,0.014736716123562775,0.0011084316323843745,0.0010624862031808511,0.9998902298253933,0.0006860520241956495,0.0020371142644545802,0.026272858629822995,0.0022161515348365904,-0.003342409236650124,0.023908623795812017,0.10911115177646785,1.5318243479348144,0.01721135142919709,55.20369720458984,0.0431695207953453,0.0428705625236034,0.5467431545257568,,,,,,,,0.6310640450221239,0.5840383512255485,0.6460275738224319,0.645498996989162,95200.0,106000.0,107900.0,93200.0,55.20369720458984,0.18991373178984605,-0.12192750720780025,0.0058273897384534395,-0.29619383193236365,-0.4550308211533932,-0.4167973737365026,10.450464759455627,55.20369720458984,0.0019510527921401848,-2.9473523649288753e-05,0.49997842086440636,0.0,0.0,0.0,1.0,0.0,1.402386978473882e-18,-9.568369488545757e-19,0.11813526315789473,3.368421052631582e-05,-7.947368421052609e-05,0.0,0.0,0.0,55.20369720458984,3.578000068664551,False,True,False,True,True,False,False,1650.7300671500752,2725317.7936137086,1874.1988557334223,3511535.1131466096,1914.8262928650117,3665088.496106653,1598.5183331052713,2554163.3923304966,-0.44847452093327167,-0.09178622087339999,10.468513646637305,0,0.0,0.028753830937623803,-0.0034710629406424754,0.0016610531960072222
8,252,0.08000000000000011,0.03945957382647813,0.039429670373477596,0.5714119974503807,0.015357218582697119,0.006898196407060682,0.001349045058762739,0.9998573652282421,0.0014520812964660334,0.013606268826029704,0.027566960371303198,0.0038841190305644565,-0.006993069017674313,0.028450540521447187,0.04883475737580449,2.289586610812361,0.011103796287096911,55.21153020858765,0.0434480309486389,0.0425593666732311,0.546342670917511,,,,,,,,0.6746021414151143,0.5536020274431966,0.6112425568562565,0.684887956114797,99000.0,101400.0,104900.0,95200.0,55.21153020858765,0.12727739674027286,0.12112112178234906,0.009213899520341014,-0.35640494508167575,-0.18574441956423524,-0.3942025736447805,10.363728655025163,55.21153020858765,0.0019510527921401848,-2.9473523649288753e-05,0.49997842086440636,0.0,0.0,0.0,1.0,0.0,1.402386978473882e-18,-9.568369488545757e-19,0.11813526315789473,3.368421052631582e-05,-7.947368421052609e-05,0.0,0.0,0.0,55.20369720458984,3.578000068664551,False,True,False,True,True,False,False,1708.0580454364926,2919579.8394643907,1801.7754243701731,3249213.1796091897,1854.5481057798934,3441394.3801853796,1656.3809324693693,2745027.1346869776,-0.22483235872550966,-0.058767803038592914,10.306335856738608,0,0.0,0.031520576149175875,0.010364596512357643,0.001661031421665983
9,253,0.0899999999999999,0.03988565867387024,0.03920426333671954,0.5712084334529418,0.01572706417514701,0.015995544382619267,0.0016658729500420044,0.9997469814306262,0.002391721753350372,0.03179384241816433,0.028395484324961754,0.007597309718298619,-0.010076688210288648,0.03348749505429497,0.03314414202406489,2.6820968900877356,-0.002309329429768417,55.22124910354614,0.0443206503987312,0.0422394797205925,0.5459310412406921,,,,,,,,0.6656537252453287,0.5819464086420172,0.6229424906036609,0.6667108529690586,99700.0,101000.0,105300.0,96800.0,55.22124910354614,0.18666263962402418,0.20267163533092514,0.009273504874895783,-0.3047498037594956,0.2091005648405241,-0.34570534099008665,10.220816798224162,55.22124910354614,0.007951052792140185,-2.9473523649288753e-05,0.49997842086440636,0.0,0.0,0.0,1.0,0.0,1.402386978473882e-18,-9.568369488545757e-19,0.24613526315789475,3.368421052631582e-05,-7.947368421052609e-05,0.0,0.0,0.0,55.241408824920654,3.578000068664551,False,True,False,True,True,False,False,1764.6395849378205,3113476.617975721,1732.5637624345002,3000869.703045753,1793.6227530964402,3217503.932956402,1714.918373056784,2941097.7480652514,-0.06292581837307187,-0.005993155109649262,10.232868150209594,0,0.0,0.031518551167840685,0.032499491203454106,0.004427869547170064
10,254,0.10000000000000013,0.040399788286858855,0.03892316931278835,0.5711837748672751,0.015885173598441087,0.027817329065426943,0.0019498976006441402,0.9994848950148072,0.003362976309893351,0.05544645540046846,0.028838985031741364,0.014514970654488469,-0.011966759334889105,0.03928588633659298,0.047629457037967865,2.7423719260659585,-0.011546074103551778,55.231199741363525,0.045145645737648,0.0419927686452865,0.5456174612045288,,,,,,,,0.625270645188643,0.6332125629215637,0.659739488476413,0.6201705976020007,102700.0,98400.0,100300.0,100300.0,55.231199741363525,0.3150352561417937,0.10684889440338184,0.006159869643520097,-0.18100665430375243,0.5809323418330433,-0.3152258670796624,10.108874912742426,55.231199741363525,0.007951052792140185,-2.9473523649288753e-05,0.49997842086440636,0.0,0.0,0.0,1.0,0.0,1.402386978473882e-18,-9.568369488545757e-19,0.24613526315789475,3.368421052631582e-05,-7.947368421052609e-05,0.0,0.0,0.0,55.241408824920654,3.5840001106262207,False,True,False,True,True,False,False,1785.9178247664074,3187703.5447291955,1704.3542092508437,2901712.548835685,1768.8333893689899,3127825.586675193,1745.4171503927873,3045552.84221207,-0.05796249064134218,0.023390659406184122,10.188435465901092,0,0.0,0.03151309816656314,0.05739206690373638,0.00442710348472738
11,255,0.11000000000000036,0.04099565016266346,0.03861725042281882,0.5712764767165183,0.01590369326512071,0.04146845589720175,0.0021599227108503884,0.9990108980586317,0.004256220734001217,0.08279716284376161,0.029043760229308324,0.02513625607128412,-0.013004975491890827,0.044713868695639106,0.06446771173030655,2.681322105085952,-0.009776149562549298,55.241408824920654,0.0454698801040649,0.0415172539651393,0.5451452136039734,,,,,,,,0.5967456576890076,0.6752429472352631,0.6926331293959228,0.5856637925039976,102400.0,96800.0,101000.0,101400.0,55.241408824920654,0.42832608729753474,-0.052403077794881237,0.002623439359236316,-0.06620672565480543,0.9002223172234644,-0.31361702985836953,10.047105680062945,55.241408824920654,0.007951052792140185,-2.9473523649288753e-05,0.49997842086440636,0.0,0.0,0.0,1.0,0.0,1.402386978473882e-18,-9.568369488545757e-19,0.24613526315789475,3.368421052631582e-05,-7.947368421052609e-05,0.0,0.0,0.0,55.241408824920654,3.5840001106262207,False,True,False,True,True,False,False,1769.2479781633435,3130870.0777209895,1721.0732253923663,2962859.4752620207,1784.4014698143262,3185399.268276112,1742.1019721427488,3035818.2369929156,0.03560142276073497,0.026890684161907985,10.061914078638456,0,0.0,0.0315017882470272,0.08779166981858924,0.004425514615745824
12,256,0.12000000000000015,0.04168037650522855,0.03831989151429253,0.5713923698811516,0.01585225919724503,0.05611799455602709,0.0022931160476090434,0.9982956566990289,0.005039138801016568,0.1122172401159299,0.02915279536762426,0.03927793772100131,-0.014355280843020434,0.04877863504724523,0.06311307136095362,2.711246444490628,-0.0005430269266140082,55.25104212760925,0.0459072217345237,0.0415680967271328,0.5451263189315796,,,,,,,,0.6085207759459987,0.6896851211304258,0.7037488246856254,0.5900370419850763,99700.0,101000.0,105300.0,97700.0,55.25104212760925,0.4893770860453013,-0.1539946443415503,0.0012153761279168976,-0.0023126774628370334,1.15682709915883,-0.3159825657421259,10.072362626714796,55.25104212760925,0.007951052792140185,-2.9473523649288753e-05,0.49997842086440636,0.0,0.0,0.0,1.0,0.0,1.402386978473882e-18,-9.568369488545757e-19,0.24613526315789475,3.368421052631582e-05,-7.947368421052609e-05,0.0,0.0,0.0,55.241408824920654,3.5840001106262207,False,True,False,True,True,False,False,1743.8525181806763,3042896.535613506,1760.1900291311476,3101774.1205375204,1816.468177264501,3301792.1259353706,1723.449970475585,2972279.507941831,0.08231052721633358,0.0004748066287276753,10.107125657068286,0,0.0,0.03148720023173637,0.1153929436281055,0.0044234652249500375
13,257,0.12999999999999992,0.04248060266525051,0.038054908356944014,0.5714437488027744,0.01577179842762068,0.07124185842603713,0.0023762050361917004,0.9973315404778839,0.0057478313377590405,0.14269895066544885,0.029253884424188175,0.05685624709212373,-0.01699444417625726,0.051501781156089735,0.038594217793880475,2.9009932587636937,0.005305321217208544,55.26161551475525,0.0468044802546501,0.0416323319077491,0.5449331402778625,,,,,,,,0.6492938160133725,0.6766823152927802,0.6978916197905083,0.6304824741410586,97700.0,104500.0,106400.0,97100.0,55.26161551475525,0.5300813555889462,-0.1519130040533098,0.0025059775259388003,0.03897610434568163,1.375441310607374,-0.320222719762994,10.181977163013924,55.26161551475525,0.018951052792140183,-2.9473523649288753e-05,0.49997842086440636,0.0,0.0,0.0,1.0,0.0,1.402386978473882e-18,-9.568369488545757e-19,0.4061352631578948,3.368421052631582e-05,-7.947368421052609e-05,0.0,0.0,0.0,55.27149271965027,3.5840001106262207,False,True,False,True,True,False,False,1743.2606648906335,3040874.0549640153,1790.6344418787053,3208386.4100244613,1837.010436079407,3375609.038286634,1716.2655345142068,2946535.937530091,-0.08962828131908318,-0.003909317792995803,10.326525138909126,0,0.0,0.031470626550732544,0.14019684710591523,0.0044211368787957185
14,258,0.14000000000000015,0.04344091451014391,0.037827312860720504,0.5713774238348752,0.015670185799341232,0.08663594816102804,0.002440150753778132,0.9961138004402673,0.006438099594112774,0.17387737761543828,0.029368243285326813,0.07839863752733235,-0.020776617933280207,0.05288665807508998,0.0005234469407995115,3.156800699594992,-0.0009641961150937442,55.27149271965027,0.04823824390769,0.0412387214601039,0.5448551177978516,,,,,,,,0.6889725431940767,0.6523399085563647,0.690371311080591,0.6838422865792231,103400.0,101000.0,103400.0,100700.0,55.27149271965027,0.570969310917308,-0.0799799812452664,0.0050325582002237156,0.07880310111407451,1.6571009555734688,-0.35412750851686264,10.304643237996086,55.27149271965027,0.018951052792140183,-2.9473523649288753e-05,0.49997842086440636,0.0,0.0,0.0,1.0,0.0,1.402386978473882e-18,-9.568369488545757e-19,0.4061352631578948,3.368421052631582e-05,-7.947368421052609e-05,0.0,0.0,0.0,55.27149271965027,3.546999931335449,False,True,False,True,True,False,False,1775.2470120256735,3153415.615372148,1794.5275718399594,3220551.372585937,1837.2941204807785,3375948.5717474753,1733.3349782099554,3004400.564721514,-0.143901364959651,0.039670195571458344,10.43816756566238,0,0.0,0.031445991936310404,0.17045344604425958,0.0044176760960197205
15,259,0.14999999999999994,0.044614829069357084,0.03762087370595755,0.5711840454848958,0.015538471386774482,0.10225467836173004,0.002497874277363406,0.994633750324307,0.007136732491573252,0.2057006994192747,0.02947817164688664,0.10454284017000949,-0.024421117857191265,0.05221849731201575,-0.03247475884970008,3.3233160939098285,-0.017458803239235998,55.28383946418762,0.0497864224016666,0.0409373044967651,0.5445541739463806,,,,,,,,0.7139234827516036,0.6390998311455391,0.6897779342136124,0.7280596832586173,105300.0,102400.0,104900.0,101700.0,55.28383946418762,0.5659814650796471,0.0008570274516973564,0.006388018073176265,0.07306193261466709,2.0642961029697604,-0.3995248350913828,10.402226721471935,55.28383946418762,0.018951052792140183,-2.9473523649288753e-05,0.49997842086440636,0.0,0.0,0.0,1.0,0.0,1.402386978473882e-18,-9.568369488545757e-19,0.4061352631578948,3.368421052631582e-05,-7.947368421052609e-05,0.0,0.0,0.0,55.27149271965027,3.546999931335449,False,True,False,True,True,False,False,1820.6411767748423,3315064.2997655226,1779.4012315163577,3165492.2699563275,1829.2465764020067,3345970.3073851774,1767.6466616868709,3124226.1713129305,-0.013179933979651892,-0.09065139030331482,10.59875995250748,0,0.0,0.03141368774878976,0.2033712044245677,0.004413137856701326
16,260,0.16000000000000017,0.04605275257272111,0.03740406166853186,0.5708938230933106,0.015373805882241609,0.11802179119253815,0.002539171112084002,0.9928887427634899,0.007824297040884194,0.23804369483068075,0.029568596001331982,0.13518696137350333,-0.026581595435283906,0.04940475747386948,-0.04405821209268815,3.3101732662974452,-0.03202443346667011,55.29889535903931,0.0514874197542667,0.0405091233551502,0.5443819761276245,,,,,,,,0.7276359142492995,0.6550865050644528,0.7005436127884528,0.7502601808835114,105300.0,102000.0,105600.0,102700.0,55.29889535903931,0.486429635467164,0.05281939339263269,0.004870671346196714,-0.006336491260523923,2.548415151063816,-0.388623307703712,10.495699254260824,55.29889535903931,0.03495105279214019,-2.9473523649288753e-05,0.49997842086440636,0.0,0.0,0.0,1.0,0.0,1.402386978473882e-18,-9.568369488545757e-19,0.5811352631578947,3.368421052631582e-05,-7.947368421052609e-05,0.0,0.0,0.0,55.31188917160034,3.546999931335449,False,True,False,True,True,False,False,1858.1041719792538,3451556.1925131762,1770.0874452729695,3131797.2273670817,1829.331896167539,3345548.0111752627,1805.458202528424,3259681.6173226093,0.028108654862908367,-0.06985436272931345,10.78551879455177,0,0.0,0.03137570562214502,0.23617817546652292,0.0071622071547298065
17,261,0.16999999999999996,0.047792743692637654,0.037142223874714074,0.5705663268416973,0.01519079315066021,0.13374092859196735,0.002541356616498691,0.9908966370562371,0.008449473191289912,0.2705232845598569,0.029648059631474256,0.16931985704576352,-0.02721642888174588,0.04645070859748434,-0.03348214241909165,3.148132910471682,-0.03283234675490301,55.303876876831055,0.0533263124525547,0.0401801839470863,0.5442845821380615,,,,,,,,0.7341649342935345,0.6988396737012563,0.7259304773086703,0.7487629648116361,106800.0,102000.0,106400.0,104500.0,55.303876876831055,0.40787039451656537,0.06286214833600198,0.0009922751233132957,-0.08447492728390615,3.0419919272330542,-0.3112320570072761,10.599794547824624,55.303876876831055,0.03495105279214019,-2.9473523649288753e-05,0.49997842086440636,0.0,0.0,0.0,1.0,0.0,1.402386978473882e-18,-9.568369488545757e-19,0.5811352631578947,3.368421052631582e-05,-7.947368421052609e-05,0.0,0.0,0.0,55.31188917160034,3.546999931335449,False,True,False,True,True,False,False,1881.2815979018058,3538946.3901708284,1787.8070671491064,3196426.738901202,1847.2264208621114,3411711.2170849284,1837.4410048065547,3376747.2269935915,0.06010225545315295,0.0816163492447392,11.082852694434111,0,0.0,0.031332373328310216,0.2688591829119594,0.004401714436751917
18,262,0.1800000000000002,0.04985775633304442,0.036810568527809,0.5702782514992142,0.015010901850362506,0.1491384644012692,0.002483264470571535,0.9886992589555428,0.008952296065828605,0.3025859151039447,0.029729690026562165,0.2056194396263848,-0.02780997441757109,0.04645618922106767,-0.018304475453051392,2.9525285180485947,-0.02014557669495185,55.31188917160034,0.0533263124525547,0.0401801839470863,0.5442845821380615,,,,,,,,0.7397849252577736,0.7421181044411022,0.7569912961782002,0.7396032733217127,110300.0,104200.0,106400.0,107900.0,55.31188917160034,0.42626141068737045,0.031031480944302657,-0.002348513101036385,-0.06596477307205902,3.51371776179011,-0.2493840802565008,10.731185760214304,55.31188917160034,0.03495105279214019,-2.9473523649288753e-05,0.49997842086440636,0.0,0.0,0.0,1.0,0.0,1.402386978473882e-18,-9.568369488545757e-19,0.5811352631578947,3.368421052631582e-05,-7.947368421052609e-05,0.0,0.0,0.0,55.31188917160034,3.503999948501587,False,True,False,True,True,False,False,1894.8996858295277,3591376.460624007,1833.1937181076319,3363085.088921193,1883.7748435928766,3549830.204263609,1859.9692109916607,3459839.497841925,0.16747841654281004,0.06314429131466376,11.278526250116489,0,0.0,0.02853760444612579,0.3013999279593849,0.004394912276172298
19,263,0.18999999999999997,0.05225944223725181,0.036402239843097615,0.5701106616206892,0.014837532336297615,0.16397896299629866,0.002354227097738413,0.9863494334887613,0.009282655221149374,0.33374907767153494,0.02978911888278234,0.24322263423193652,-0.02992172608647762,0.05119158088992277,-0.020172667487186484,2.834896442548024,-0.007119210461286201,55.321552991867065,0.0581464655697345,0.0391860343515872,0.5441640019416809,,,,,,,,0.7555316415219537,0.7543969505923974,0.7750990738099556,0.747613045896572,109100.0,109100.0,110700.0,107500.0,55.321552991867065,0.518848732486709,-0.016430041793795182,-0.0020943508165638153,0.02648030043376821,3.934919815361382,-0.2799107641772828,10.921235913422365,55.321552991867065,0.05795105279214019,-2.9473523649288753e-05,0.49997842086440636,0.0,0.0,0.0,1.0,0.0,1.402386978473882e-18,-9.568369488545757e-19,0.7731352631578947,3.368421052631582e-05,-7.947368421052609e-05,0.0,0.0,0.0,55.34143328666687,3.503999948501587,False,True,False,True,True,False,False,1906.8767957387313,3636827.9002975672,1885.8900479472713,3558276.460691802,1929.3294162599561,3724242.847326653,1876.1955108843476,3519733.6354942094,0.1849756155501896,0.025397728215351134,11.55236997386914,0,0.0,0.02849247998013318,0.3310854302499369,0.004387962916778063
20,264,0.2000000000000002,0.05500579604277061,0.03592871789268068,0.5701363942360813,0.014639365153679241,0.17815966849459675,0.0021610557642387203,0.9838903146935519,0.009423746966884918,0.3638051468276144,0.02974600244565091,0.28225990247456734,-0.03361370988144635,0.060377163765817365,-0.04530579260118231,2.825198621522823,-0.00774329359730003,55.33119988441467,0.061146143823862,0.0388090163469314,0.544294536113739,,,,,,,,0.781085007258988,0.7379975039844682,0.7749720813765973,0.7776961160327093,109100.0,110700.0,114100.0,107900.0,55.33119988441467,0.5763133836345933,-0.03289047065362785,0.0017052434690924731,0.08382493899018746,4.301688240193954,-0.38906140934386835,11.155797625136705,55.33119988441467,0.05795105279214019,-2.9473523649288753e-05,0.49997842086440636,0.0,0.0,0.0,1.0,0.0,1.402386978473882e-18,-9.568369488545757e-19,0.7731352631578947,3.368421052631582e-05,-7.947368421052609e-05,0.0,0.0,0.0,55.34143328666687,3.503999948501587,False,True,False,True,True,False,False,1925.3378833818426,3707316.435705069,1921.8864083405579,3693090.566152181,1966.4997421818953,3867711.192724814,1896.2046380947195,3595378.0362292067,0.01902017088774599,0.0039448090912493905,12.03749985701685,0,0.0,0.03118527066863081,0.3579406163791864,0.004381048785477733
21,265,0.21,0.05810916039170973,0.03541368275985292,0.5704068823726226,0.014360444662650419,0.1917219080909755,0.0019374630100002976,0.9813423122560911,0.009428253568236351,0.39285416132429224,0.029501964393873318,0.32398850917904126,-0.03758433615810053,0.07289320112401998,-0.07860254005447503,2.860786751508322,-0.023938987955793592,55.34143328666687,0.0646420419216156,0.0382777154445648,0.5446714758872986,,,,,,,,0.7979843493992651,0.7257522546515904,0.7718981237367287,0.8048189811413072,112800.0,109100.0,112800.0,110300.0,55.34143328666687,0.5569100738936532,-0.0017329381775791231,0.005443909242956307,0.06443358321659445,4.671578069806976,-0.47883651020505635,11.377770712222077,55.34143328666687,0.05795105279214019,-2.9473523649288753e-05,0.49997842086440636,0.0,0.0,0.0,1.0,0.0,1.402386978473882e-18,-9.568369488545757e-19,0.7731352631578947,3.368421052631582e-05,-7.947368421052609e-05,0.0,0.0,0.0,55.34143328666687,3.503999948501587,False,True,False,True,True,False,False,1953.5128300984184,3816771.8558474504,1933.083963030475,3735973.9113504332,1983.1765192757803,3932539.6612356557,1927.4484939328167,3715936.0187121737,-0.0036259193585976845,-0.10620063239668531,12.309848128814886,0,0.0,0.028400194067011157,0.38467557395580537,0.004373750494244019
22,266,0.22000000000000022,0.061592293240139116,0.03488384718197693,0.570939382102331,0.01395290824609785,0.2047826940202577,0.0017480281688833038,0.9787064467851442,0.009440880560440729,0.42116428319198257,0.02901350099799917,0.37028191283527284,-0.04066775683887552,0.0875569419136615,-0.09782156190289477,2.851664800323003,-0.04465757297598979,55.35641598701477,0.0684652179479599,0.0379742123186588,0.5450292229652405,,,,,,,,0.7916171998641119,0.7423509883936589,0.7804125430232807,0.8033477413245548,113600.0,111500.0,112800.0,113200.0,55.35641598701477,0.5286478324374214,0.037098760665284676,0.005497471583576033,0.03623272327593534,5.0987607639014385,-0.4523147961958426,11.539760923871826,55.35641598701477,0.05795105279214019,-2.9473523649288753e-05,0.49997842086440636,0.0,0.0,0.0,1.0,0.0,1.402386978473882e-18,-9.568369488545757e-19,0.7731352631578947,3.368421052631582e-05,-7.947368421052609e-05,0.0,0.0,0.0,55.34143328666687,3.499000072479248,False,True,False,True,True,False,False,1984.8245511052646,3939865.626798281,1930.750333058249,3727828.862214822,1983.3191560764303,3933441.0431739776,1963.526763823389,3856397.1719539785,0.0011609700479651153,-0.1532862701111397,12.540913189542618,0,0.0,0.028349216942456214,0.4112673117000736,0.004365899800576531
23,267,0.23,0.06549168091203421,0.03436040654909395,0.5717113427023026,0.013408469648810416,0.21744179317860052,0.001667609503623529,0.9759797634169958,0.009652812176678044,0.4489691271658207,0.028334515802195273,0.42252173242610075,-0.04288376665073948,0.10289512568206796,-0.09472504125944423,2.761843237388981,-0.05650699861938806,55.36009860038757,0.0728513598442077,0.0372393317520618,0.5457722544670105,,,,,,,,0.7719496186945426,0.7760721190887292,0.7950301208167867,0.7789736684153555,114900.0,111500.0,115400.0,113200.0,55.36009860038757,0.5623099545984921,0.03320620013924309,0.0017364153775952084,0.06991708415916771,5.554856904612862,-0.32680179055353137,11.591752057654924,55.36009860038757,0.08795105279214017,-2.9473523649288753e-05,0.49997842086440636,0.0,0.0,0.0,1.0,0.0,1.402386978473882e-18,-9.568369488545757e-19,0.9661352631578947,3.368421052631582e-05,-7.947368421052609e-05,0.0,0.0,0.0,55.374290466308594,3.499000072479248,False,True,False,True,True,False,False,2007.6549077793622,4030424.4717799076,1932.8879254750948,3736599.960531513,1982.0123422214967,3928966.0050842995,1988.560477384005,3954353.4354745215,-0.010447342606482835,0.053654023809645957,12.909615209403475,0,0.0,0.028295101533548028,0.43771238469706036,0.0043575657977912
24,268,0.24000000000000024,0.06985754512927055,0.033853531175859444,0.5726696174523984,0.012764838831053548,0.229725584054557,0.0017239433670745684,0.9731702024515944,0.010153532297899477,0.47633033802225144,0.027572920626165873,0.48068603019595946,-0.045137412316456564,0.11740710125865489,-0.08252520377430554,2.6299481961290234,-0.05486200219800373,55.374290466308594,0.0777921974658966,0.0367591567337513,0.5468277931213379,,,,,,,,0.762650947704749,0.7904201186803025,0.7969797682526457,0.7611726871502081,115800.0,110300.0,112400.0,115400.0,55.374290466308594,0.6400928857189121,-0.012206243964160623,-0.002580089144013243,0.14768146830843357,5.962509315996254,-0.22950949755990224,11.516279831758233,55.374290466308594,0.08795105279214017,-2.9473523649288753e-05,0.49997842086440636,0.0,0.0,0.0,1.0,0.0,1.402386978473882e-18,-9.568369488545757e-19,0.9661352631578947,3.368421052631582e-05,-7.947368421052609e-05,0.0,0.0,0.0,55.374290466308594,3.499000072479248,False,True,False,True,True,False,False,2016.1661747289027,4064619.422638262,1948.5820201784124,3797689.564560177,1990.8674162231086,3964622.1662136363,1994.8052864115455,3978965.4815013753,-0.016878852477887563,0.1264122328904154,13.034426083560975,0,0.0,0.025520713646820674,0.46400842301297673,0.004348811191650999
25,269,0.25000000000000006,0.07474981021164426,0.03336082762686534,0.5737530791153276,0.01208121975139016,0.2415924565565564,0.0018204757207209924,0.9703008888651177,0.010723208871001316,0.5031245962372587,0.02676711434839762,0.5434967112846942,-0.048135298279339496,0.13046043953901035,-0.08168912009755905,2.5161578124313984,-0.046660639358795934,55.38119959831238,0.0835142731666565,0.0361930988729,0.547920286655426,,,,,,,,0.7722651126897334,0.7643565036965674,0.7779983793412805,0.7666055751686447,115400.0,112800.0,115400.0,113600.0,55.38119959831238,0.6685018950298794,-0.047021616781260496,-0.00360141472847454,0.1760717031399249,6.288795026999975,-0.23476069617599526,11.400412406466085,55.38119959831238,0.08795105279214017,-2.9473523649288753e-05,0.49997842086440636,0.0,0.0,0.0,1.0,0.0,1.402386978473882e-18,-9.568369488545757e-19,0.9661352631578947,3.368421052631582e-05,-7.947368421052609e-05,0.0,0.0,0.0,55.374290466308594,3.499000072479248,False,True,False,True,True,False,False,2014.4880636975895,4058243.4110309323,1969.9599360427085,3881125.7366898134,2008.5194397471817,4035048.5848414963,1991.679918867942,3966888.3970204582,0.08861707076739389,0.026859721424692062,12.915885647768551,0,0.0,0.022754843121311243,0.4901428437498007,-0.0010839705114361773
26,270,0.2600000000000003,0.08023035527589047,0.03286953630797355,0.574916902077054,0.01139991440256045,0.25297810410547866,0.0016932612372848978,0.9674033562383346,0.010706194761177993,0.5291217616921748,0.02576415803857341,0.6094277779790023,-0.05156243075043879,0.14231821136019168,-0.09833353174257065,2.437134212200523,-0.04381223593330117,55.392494440078735,0.0896523594856262,0.0355468094348907,0.5489782691001892,,,,,,,,0.7842427462335042,0.719058389203259,0.7520352211960565,0.7807389594423364,114500.0,114500.0,116700.0,113600.0,55.392494440078735,0.563640923274848,-0.03157244789415046,-4.792958259822904e-05,0.07121087322866478,6.566997191783544,-0.26959479272895387,11.3182007756999,55.392494440078735,0.12195105279214018,-2.9473523649288753e-05,0.49997842086440636,0.0,0.0,0.0,1.0,0.0,1.402386978473882e-18,-9.568369488545757e-19,1.1501352631578947,3.368421052631582e-05,-7.947368421052609e-05,0.0,0.0,0.0,55.41150975227356,3.5360000133514404,False,True,False,True,True,False,False,2010.4325820071422,4042156.930488139,1978.9765298374805,3916548.3889702926,2023.4568115293403,4094522.1409850833,1993.6462791104957,3974992.372453033,-0.028892720546237705,0.048542056049855786,13.100755387976449,0,0.0,0.02271424850994206,0.5109239539296304,0.0016249081667081278
27,271,0.2700000000000001,0.08635383938368893,0.03236151374304467,0.5761461594351219,0.010722681655282437,0.2638379338839099,0.0009653206776760019,0.9645069397873601,0.009134490933508073,0.5540767718494813,0.02421325412919295,0.6774751782272871,-0.054254405036660076,0.1530671613290021,-0.11834957970037445,2.3569621107542718,-0.05192458805056355,55.40143632888794,0.0958690196275711,0.0351091623306274,0.5504735112190247,,,,,,,,0.7788659593062169,0.6954216657849805,0.7373878076011523,0.7801562500878253,115800.0,112800.0,115800.0,114500.0,55.40143632888794,0.35362814354297123,0.012332956325793416,0.005090349627293679,-0.13879308721117278,6.825150151143769,-0.23974211840608767,11.18881272746481,55.40143632888794,0.12195105279214018,-2.9473523649288753e-05,0.49997842086440636,0.0,0.0,0.0,1.0,0.0,1.402386978473882e-18,-9.568369488545757e-19,1.1501352631578947,3.368421052631582e-05,-7.947368421052609e-05,0.0,0.0,0.0,55.41150975227356,3.5360000133514404,False,True,False,True,True,False,False,2007.202647890624,4029128.225789181,1966.5371438188724,3868013.890205359,2025.2491596021866,4101399.633544831,2001.6979307785577,4007154.8711265475,-0.132340363302756,0.04630923991843944,13.195904701786805,0,0.0,0.02266678157092815,0.5341678624334568,0.004322800356535861
28,272,0.2800000000000003,0.09316032043220954,0.03181959957489025,0.5774542403111285,0.010019500369620954,0.2741586657808609,-0.0006844672375136488,0.961632033105284,0.005153778603826401,0.5777831970597435,0.021729265901226334,0.7470447778310874,-0.05523807335675667,0.16209898684875065,-0.12401548431242713,2.2356675661304184,-0.06285406849455707,55.41150975227356,0.1037933975458145,0.0344292595982551,0.5514853596687317,,,,,,,,0.7574799575864317,0.7069776466174575,0.7329600219879735,0.7634897600981918,114500.0,110300.0,114500.0,116300.0,55.41150975227356,0.1956753486577148,0.0310054054099554,0.006442782365031921,-0.29674195204842546,7.035436880888907,-0.1813052715686872,10.917506563779105,55.41150975227356,0.12195105279214018,-2.9473523649288753e-05,0.49997842086440636,0.0,0.0,0.0,1.0,0.0,1.402386978473882e-18,-9.568369488545757e-19,1.1501352631578947,3.368421052631582e-05,-7.947368421052609e-05,0.0,0.0,0.0,55.41150975227356,3.5360000133514404,False,True,False,True,True,False,False,2002.1639869358826,4008686.9403052535,1943.8888183145357,3779299.4825412477,2012.4374537253318,4049903.833072332,2003.41737128668,4014123.5379247973,0.04106712932297096,0.05354012135427613,12.907925405052302,0,0.0,0.01992721333917744,0.554712597804546,-0.0010777052224356398
29,273,0.2900000000000001,0.10067202887667394,0.031233637036604384,0.5788694342212509,0.009261640062608392,0.28394248312395703,-0.0033038784745408304,0.9587908910121005,-0.0014103935734529204,0.600089215280989,0.01815911907416214,0.8174760146260752,-0.05461831006608134,0.16900004014129527,-0.11437433321289117,2.0730049863158366,-0.0585303968299013,55.42136001586914,0.1114432066679,0.0339991897344589,0.5532487034797668,,,,,,,,0.7362110674997351,0.7299399897635745,0.7237479000257936,0.7490326900364425,114100.0,110700.0,114900.0,113600.0,55.42136001586914,0.23433784176945782,0.008610234709045168,0.0009700376541537465,-0.25808179081660887,7.167572479009259,-0.20018530660595518,10.570866851799826,55.42136001586914,0.1639510527921402,-2.9473523649288753e-05,0.49997842086440636,0.0,0.0,0.0,1.0,0.0,1.402386978473882e-18,-9.568369488545757e-19,1.3271352631578948,3.368421052631582e-05,-7.947368421052609e-05,0.0,0.0,0.0,55.44128155708313,3.5360000133514404,False,True,False,True,True,False,False,1991.5661122541849,3966123.256234463,1930.9251000283325,3728386.822921691,1990.1670166086521,3960961.6310951444,1992.0070238551443,3968835.9927223865,-0.034211421085879046,0.11961828633154035,12.780010435063911,0,0.0,0.01989663270431283,0.5753970331380266,-0.003768022604958457
30,274,0.3000000000000003,0.10889501000317187,0.03060431187043977,0.5804165212081471,0.008453209774853806,0.29318629432673593,-0.006524137033512968,0.9559956985778895,-0.009662556910474856,0.6209021130980206,0.013793080585972619,0.8880379271922132,-0.05347464465688502,0.17440353171037823,-0.10621026441979381,1.9003607474132482,-0.024651633075915287,55.43111062049866,0.1114432066679,0.0339991897344589,0.5532487034797668,,,,,,,,0.7225317367590307,0.7373075057453107,0.7049125992552967,0.7468199977193419,112800.0,111900.0,112400.0,112400.0,55.43111062049866,0.43995801066948675,-0.019079986465585164,-0.009443939676317386,-0.052464511218772894,7.248942298466094,-0.2897361771768924,10.276985702090066,55.43111062049866,0.1639510527921402,-2.9473523649288753e-05,0.49997842086440636,0.0,0.0,0.0,1.0,0.0,1.402386978473882e-18,-9.568369488545757e-19,1.3271352631578948,3.368421052631582e-05,-7.947368421052609e-05,0.0,0.0,0.0,55.44128155708313,3.552000045776367,False,True,False,True,True,False,False,1973.915228720735,3896172.551753888,1935.3663319921388,3745663.4069079836,1963.6808497410875,3856160.0670370674,1977.1235227658617,3909514.459138036,-0.11208554450925945,-0.04328028438137915,12.629102172513925,0,0.0,0.01722293659438045,0.5948720544385105,-0.011856516518106727
31,275,0.3100000000000001,0.11782487891064113,0.029943479307621562,0.5821007248566462,0.007639023664736051,0.30187367531209414,-0.00959734427719382,0.9532690178820683,-0.017706796864541498,0.6401926237846586,0.009373375660762672,0.9584076684262006,-0.05302081242562339,0.17920314935788925,-0.11554583458247245,1.742467753013488,0.03628554605386447,55.44128155708313,0.1204720288515091,0.0332203209400177,0.5547997355461121,,,,,,,,0.7105299287281892,0.7248131771947668,0.6876500343330574,0.7467373256013474,111900.0,110300.0,110300.0,113600.0,55.44128155708313,0.6399431060636688,-0.01888363672616813,-0.019826237635300212,0.1475203623914222,7.315342347065009,-0.32276184312572803,10.05285778836296,55.44128155708313,0.1639510527921402,-2.9473523649288753e-05,0.49997842086440636,0.0,0.0,0.0,1.0,0.0,1.402386978473882e-18,-9.568369488545757e-19,1.3271352631578948,3.368421052631582e-05,-7.947368421052609e-05,0.0,0.0,0.0,55.44128155708313,3.552000045776367,False,True,False,True,True,False,False,1950.2595956650653,3803721.5239577116,1947.003025014661,3791148.4242970687,1935.7899144566322,3747330.721123354,1972.0864496725349,3889026.787340633,-0.08697797603884805,-0.0936909862981682,12.382645287129513,0,0.0,0.014544188364638218,0.6144152856823453,-0.017265270770100045
32,276,0.3199999999999999,0.12745467449041778,0.02927089649212567,0.5839003559385469,0.006885209531809971,0.30997768328504127,-0.011635969634017375,0.9506476918215381,-0.023245403984162666,0.6579840842149282,0.005857485820541016,1.0289049045955403,-0.05383654323376826,0.1828982008480331,-0.14149417649967272,1.5979025013951353,0.1030345701464796,55.45105409622192,0.1404505521059036,0.0319848284125328,0.558326780796051,,,,,,,,0.6957160107456049,0.7030733140519315,0.6830316016032729,0.73537831933641,111100.0,112800.0,109900.0,113200.0,55.45105409622192,0.6988924552138657,0.0005835983526682933,-0.025125025194212485,0.20647095840245944,7.3471032947906725,-0.24985433526830675,9.798859325585582,55.45105409622192,0.1639510527921402,-2.9473523649288753e-05,0.49997842086440636,0.0,0.0,0.0,1.0,0.0,1.402386978473882e-18,-9.568369488545757e-19,1.3271352631578948,3.368421052631582e-05,-7.947368421052609e-05,0.0,0.0,0.0,55.44128155708313,3.552000045776367,False,True,False,True,True,False,False,1924.5253889423634,3704297.821223382,1949.5384221381503,3801058.4866775544,1908.3726446366745,3642012.1542489277,1975.9506439197135,3903908.720723649,-0.13735462296094703,0.035525636797321486,12.254561701373959,0,0.0,0.014558690982881558,0.6312309796223816,-0.02808450199930428
33,277,0.3300000000000001,0.13778178113982364,0.028608624966901725,0.5857710609719643,0.006246745658125963,0.31745925855537543,-0.011965637237879292,0.9481758385719631,-0.024489053322732934,0.6743056963292284,0.004030825291903578,1.1000548881770762,-0.05564083333212843,0.18329896985594307,-0.16860976222193882,1.4495158537627948,0.1471279493468497,55.46147966384888,0.1513994932174682,0.0314714685082435,0.5599833130836487,,,,,,,,0.683075664438544,0.6796522827644963,0.6876573401974839,0.7144783809984223,107500.0,110300.0,108300.0,112800.0,55.46147966384888,0.6201237799955691,0.010628400707022272,-0.0223269832606786,0.1277029515846935,7.318341492506504,-0.17665691851631002,9.428953524368648,55.46147966384888,0.2109510527921402,-2.9473523649288753e-05,0.49997842086440636,0.0,0.0,0.0,1.0,0.0,1.402386978473882e-18,-9.568369488545757e-19,1.4861352631578948,3.368421052631582e-05,-7.947368421052609e-05,0.0,0.0,0.0,55.47265005111694,3.552000045776367,False,True,False,True,True,False,False,1903.0043617666406,3621880.5316762277,1934.243548603717,3741694.5739498967,1884.1923191048354,3550328.0777861434,1974.0917184547588,3896809.5056530675,-0.17533522416123226,0.11541009512419872,11.975514844265017,0,0.0,0.011868125106249513,0.6452737940501878,-0.0281080376036122
34,278,0.3399999999999999,0.14881078033149403,0.02797501525066766,0.5876588498401907,0.005741415028068464,0.32425216217058594,-0.010427242928128088,0.9458957892316116,-0.020957213908455716,0.6891140445640582,0.004154334866466889,1.1718941008471218,-0.057615450010737534,0.17830924864174275,-0.18173738027396202,1.2796706162119789,0.15058509580889373,55.47265005111694,0.1630161851644516,0.0310487113893032,0.5618988275527954,,,,,,,,0.6797037826345341,0.654121271841686,0.6865051842715708,0.6967999587527579,109100.0,109100.0,106000.0,112800.0,55.47265005111694,0.5017893641674128,0.004131956181475383,-0.012549385171495004,0.00936825717877219,7.257916996561995,-0.18040381345275547,9.003375175784463,55.47265005111694,0.2109510527921402,-2.9473523649288753e-05,0.49997842086440636,0.0,0.0,0.0,1.0,0.0,1.402386978473882e-18,-9.568369488545757e-19,1.4861352631578948,3.368421052631582e-05,-7.947368421052609e-05,0.0,0.0,0.0,55.47265005111694,3.572999954223633,False,True,False,True,True,False,False,1890.8231646031854,3575611.886428827,1903.4974304617406,3623480.443261042,1866.1038445593626,3482415.6432289914,1954.7642499693864,3821855.1475931364,-0.085534004154046,0.02076286866037278,11.558862448940138,0,0.0,0.011878281335643295,0.6593514394034901,-0.022721932487463372
35,279,0.35000000000000014,0.16055049312754058,0.02738016495450592,0.5895142101210952,0.005341921990354745,0.33024415979652355,-0.007477088592268876,0.9438508102109785,-0.013769057311205025,0.7022219695561797,0.005819881345942433,1.2437821655070518,-0.059016520725012886,0.16797331870224902,-0.17745439446920805,1.072759846118485,0.11605682052293213,55.48129057884216,0.175375685095787,0.0305393375456333,0.5635751485824585,,,,,,,,0.68412525381862,0.6255643894577474,0.671170502003025,0.6872210998491419,109100.0,106800.0,106400.0,109500.0,55.48129057884216,0.4521795353257919,0.0031176445809539127,-0.0010029138678949463,-0.04024200958413103,7.197294351864459,-0.18434655936952998,8.673491554410878,55.48129057884216,0.2109510527921402,-2.9473523649288753e-05,0.49997842086440636,0.0,0.0,0.0,1.0,0.0,1.402386978473882e-18,-9.568369488545757e-19,1.4861352631578948,3.368421052631582e-05,-7.947368421052609e-05,0.0,0.0,0.0,55.47265005111694,3.572999954223633,False,True,False,True,True,False,False,1888.6092623712682,3567266.018717125,1864.9196960686916,3477647.213070778,1853.9343428817479,3437204.533798546,1921.0177345170353,3691301.9415664114,-0.05521505452657305,-0.025168357408272793,11.20127411269089,0,0.0,0.011888702362272628,0.6734670974769675,-0.009204599766187175
36,280,0.3600000000000004,0.17300601592413498,0.026824358699608794,0.5912995339980998,0.004985805264864724,0.33527318515736043,-0.004032733883619432,0.9420991296661531,-0.0052738980344833285,0.713282007813665,0.008080330893887223,1.3149537975131977,-0.05965005126078262,0.15448329339189532,-0.16409386425066794,0.8136271207348217,0.06065281968109009,55.4913330078125,0.188504472374916,0.0301627181470394,0.5652570128440857,,,,,,,,0.6845630852093946,0.5996463685207861,0.6524823279360942,0.6762765670092101,106800.0,104500.0,106400.0,107900.0,55.4913330078125,0.5194524872419448,0.025675504614702593,0.007599494591299538,0.02703087380927563,7.114772222977755,-0.10297152201970672,8.45955606474351,55.4913330078125,0.2619510527921402,-2.9473523649288753e-05,0.49997842086440636,0.0,0.0,0.0,1.0,0.0,1.402386978473882e-18,-9.568369488545757e-19,1.618135263157895,3.368421052631582e-05,-7.947368421052609e-05,0.0,0.0,0.0,55.51222586631775,3.572999954223633,False,True,False,True,True,False,False,1891.9797480390303,3579725.4070105846,1824.5643398850161,3328734.4034073637,1844.069023112449,3400865.5664933147,1885.7494832630866,3555918.4047685675,-0.1518335088083882,0.049456509704338986,11.130116218411686,0,0.0,0.009187866052587744,0.6847901299686531,-0.014630043031692866
37,281,0.37000000000000016,0.18616913749016817,0.026300025618933527,0.5929873043904766,0.004595854543757612,0.3391464167472556,-0.0011297996396251336,0.9407216961893053,0.0018258237014311296,0.7218400514029921,0.009797870892009774,1.3851706451407992,-0.05989804651747914,0.14002732131565968,-0.15271226290440354,0.49669832543527614,0.0016663649700680988,55.504337787628174,0.2020415365695953,0.0295234359800815,0.5666763782501221,,,,,,,,0.6701365558811414,0.5841931470016428,0.6453993057474507,0.6564979793001279,109100.0,102700.0,104900.0,106400.0,55.504337787628174,0.6485781369855453,0.05547679807666634,0.012946886985223742,0.15615669671777416,6.984695475510566,0.010204872614874745,8.221924844727425,55.504337787628174,0.2619510527921402,-2.9473523649288753e-05,0.49997842086440636,0.0,0.0,0.0,1.0,0.0,1.402386978473882e-18,-9.568369488545757e-19,1.618135263157895,3.368421052631582e-05,-7.947368421052609e-05,0.0,0.0,0.0,55.51222586631775,3.572999954223633,False,True,False,True,True,False,False,1892.2431907343373,3580344.4475270035,1785.7923076458574,3189193.3437186833,1833.2729468503571,3361053.9186159414,1857.8947407275796,3450901.873721419,-0.18287189261295023,0.13545852322424773,10.783214274764184,0,0.0,0.009191264943783837,0.6904642540351734,-0.0010834205776693755
38,282,0.37999999999999995,0.20001199678175507,0.025796251135762775,0.5945530403622032,0.004104193232984484,0.3416735497686571,0.0004735677922318756,0.9398096172735931,0.0055131622698703295,0.7274333488045076,0.010077179318171838,1.4546345045513527,-0.060330959147468624,0.12480622548224274,-0.14665282455313008,0.13961057895208245,-0.04919657293875135,55.51222586631775,0.2020415365695953,0.0295234359800815,0.5666763782501221,,,,,,,,0.6445341427255268,0.5793298961478414,0.6445208721879467,0.6369171969175735,107900.0,100000.0,103100.0,105600.0,55.51222586631775,0.722152809004011,0.059955354687577705,0.01616571629773132,0.22973147915454417,6.816853444678513,0.057127122934146096,7.898441063783169,55.51222586631775,0.2619510527921402,-2.9473523649288753e-05,0.49997842086440636,0.0,0.0,0.0,1.0,0.0,1.402386978473882e-18,-9.568369488545757e-19,1.618135263157895,3.368421052631582e-05,-7.947368421052609e-05,0.0,0.0,0.0,55.51222586631775,3.609999895095825,False,True,False,True,True,False,False,1880.0816749012206,3534896.2603138564,1751.9038527705293,3069504.170808859,1820.0341902326606,3312423.2306135306,1836.7056716692232,3373237.6754109245,-0.14146193990413725,0.124620149043853,10.388807229615479,0,0.0,0.00919648280624801,0.6989921296742688,0.007051801194538479
39,283,0.3900000000000002,0.21448809791097367,0.02530375776000202,0.5959697998818339,0.003475048177529807,0.3426991887991345,0.0005878969577112345,0.9394385793726729,0.005244495049080711,0.7296888241827123,0.008617363732545324,1.5231608727668824,-0.06118637700867538,0.10735665884445722,-0.13902486076403162,-0.22213224561876505,-0.08133750855336007,55.52476263046265,0.2314694821834564,0.0284656099975109,0.569288432598114,,,,,,,,0.6233229128894583,0.5783639143613778,0.6305709462431772,0.6311509946701628,106400.0,99000.0,104200.0,104500.0,55.52476263046265,0.6765919440443778,0.036593681056043624,0.01521071001983209,0.18417058347638007,6.613517917945092,0.03967828423301207,7.593959068185757,55.52476263046265,0.3179510527921402,-2.9473523649288753e-05,0.49997842086440636,0.0,0.0,0.0,1.0,0.0,1.402386978473882e-18,-9.568369488545757e-19,1.729135263157895,3.368421052631582e-05,-7.947368421052609e-05,0.0,0.0,0.0,55.54129505157471,3.609999895095825,False,True,False,True,True,False,False,1853.9365517346728,3438085.071181706,1726.3622896489876,2980410.363362326,1801.6139082357122,3245920.5051003476,1818.5574512194835,3307746.427858705,-0.09178093145586086,0.06747818868891088,10.087339185869205,0,0.0,0.006484488063577637,0.6989868579997691,0.004339822626675921
40,284,0.39999999999999997,0.22954145102574733,0.024818243810832395,0.5972084415976299,0.0027197825905003136,0.3421226431262882,-0.0003534875397116789,0.9396513049474801,0.0021222219307566958,0.7283840979085625,0.005823046866487544,1.5895627957796785,-0.062052176274074486,0.08660367395075272,-0.12197845098931859,-0.5635182304440923,-0.08497212084129725,55.532360553741455,0.2314694821834564,0.0284656099975109,0.569288432598114,,,,,,,,0.6152788402352246,0.5773470798667701,0.6009206221313275,0.6361424818799883,104200.0,98000.0,102400.0,102700.0,55.532360553741455,0.5615538758603138,0.01791114073867264,0.0074568455210864085,0.06913244988227128,6.365768742032455,0.02060821116883676,7.396681434475362,55.532360553741455,0.3179510527921402,-2.9473523649288753e-05,0.49997842086440636,0.0,0.0,0.0,1.0,0.0,1.402386978473882e-18,-9.568369488545757e-19,1.729135263157895,3.368421052631582e-05,-7.947368421052609e-05,0.0,0.0,0.0,55.54129505157471,3.609999895095825,False,True,False,True,True,False,False,1823.980611380637,3327529.4640899524,1709.6215725582563,2922628.4314316986,1774.7003249871404,3150393.450861816,1803.4836836977033,3253068.02349011,-0.16217818390004535,0.09408243374583528,9.767538004452675,0,0.0,0.00648444756691464,0.6989824927152702,-0.0010840206878048844
41,285,0.4100000000000002,0.24512029929909887,0.02434088452759209,0.5982428484769459,0.001896807322780673,0.3398993173200789,-0.0015210111164018626,0.9404586874140237,-0.0016807994297366581,0.7234511730348299,0.002599934117107997,1.6521453584675312,-0.06205100784210037,0.06308175005497907,-0.0988747160141169,-0.8910051140724429,-0.06065699489735645,55.54129505157471,0.2798157930374145,0.0272024106234312,0.571811318397522,,,,,,,,0.6124455752470255,0.5768542866326543,0.577283177598675,0.6349357541953582,103100.0,97100.0,98000.0,102400.0,55.54129505157471,0.4641062602874203,0.02557027112554393,-0.004114227454494296,-0.028315181004353866,6.106231667086634,0.017527539297577825,7.276009912006044,55.54129505157471,0.3179510527921402,-2.9473523649288753e-05,0.49997842086440636,0.0,0.0,0.0,1.0,0.0,1.402386978473882e-18,-9.568369488545757e-19,1.729135263157895,3.368421052631582e-05,-7.947368421052609e-05,0.0,0.0,0.0,55.54129505157471,3.609999895095825,False,True,False,True,True,False,False,1802.4592856253405,3248246.430370135,1697.4610297483148,2881212.3046643864,1740.8234894090706,3031535.0473742825,1791.690765928914,3209993.544699696,-0.24506852876138563,0.09333876354859966,9.502437190927914,0,0.0,0.0037711133520972216,0.693296431330793,-0.006505376814697332
42,286,0.42,0.261189485322854,0.023876093170115954,0.5990563116958988,0.00109408923527697,0.3360255905994048,-0.0020956693420679092,0.9418498891018011,-0.003988467058762444,0.7149268124971154,-7.594981202019334e-05,1.7101164209307858,-0.060525773232187136,0.038013179725240875,-0.08429307257494552,-1.2297483758003576,-0.025323288955274578,55.5525496006012,0.2798157930374145,0.0272024106234312,0.571811318397522,,,,,,,,0.6025010799175601,0.5762433466532876,0.5798956663267626,0.6190968711672274,102400.0,96800.0,99000.0,102700.0,55.5525496006012,0.4039468868723282,0.042298999609431606,-0.011616293075281479,-0.08847453085602015,5.87919485565639,0.011677911886886721,7.1844203812654825,55.5525496006012,0.3179510527921402,-2.9473523649288753e-05,0.49997842086440636,0.0,0.0,0.0,1.0,0.0,1.402386978473882e-18,-9.568369488545757e-19,1.729135263157895,3.368421052631582e-05,-7.947368421052609e-05,0.0,0.0,0.0,55.54129505157471,3.615000009536743,False,True,False,True,True,False,False,1789.6244027433586,3201735.909289155,1683.9786268768419,2835831.3183783535,1707.9261220281555,2917312.955366437,1778.0029959191666,3160891.232678638,-0.23505758432628276,0.0491597028300085,9.247585741790576,0,0.0,0.0010596431686826502,0.6847842977377824,-0.011920536658201548
43,287,0.4300000000000002,0.2777362369597099,0.02342782477035021,0.5996456632333681,0.00040118277934379033,0.3305183353184571,-0.0016459974195179574,0.9437980503069439,-0.0036209073946006335,0.7028789753619983,-0.0015869832364819871,1.7645667667250002,-0.05769299121814386,0.011824081844246754,-0.0887030751018603,-1.5918548624238298,-0.003043436220303071,55.56401968002319,0.2968888580799103,0.0267179273068904,0.5724639296531677,,,,,,,,0.5858792160223936,0.5736591822293093,0.6050101126036936,0.5975283121561592,102000.0,95200.0,96500.0,100300.0,55.56401968002319,0.34253834656683313,0.038689242725687134,-0.009852830689808897,-0.14988305334328236,5.662991399257631,0.004359129510013767,7.122020484049141,55.56401968002319,0.3779510527921402,-2.9473523649288753e-05,0.49997842086440636,0.0,0.0,0.0,1.0,0.0,1.402386978473882e-18,-9.568369488545757e-19,1.8111352631578947,3.368421052631582e-05,-7.947368421052609e-05,0.0,0.0,0.0,55.57111597061157,3.615000009536743,False,True,False,True,True,False,False,1773.8076368068373,3146407.5002470207,1666.55377594073,2777598.810316217,1686.0267671898405,2842192.0344004286,1755.4100907745953,3081610.65924482,-0.2424460802735382,0.007893033781356584,9.112164012696311,0,0.0,0.0010588808595051488,0.6734619066348888,-0.0010822315895791413
44,288,0.44,0.2947670516020947,0.022996416413988176,0.6000212579742907,-0.00011743711769015446,0.32340400787618206,-0.00028232376296941466,0.9462609334593913,-0.0008083051260414549,0.6873512086469586,-0.0018778625452586658,1.8177540494748614,-0.0546001701167808,-0.015708531582025037,-0.10352563846135923,-1.961552712942737,-0.007527968126341163,55.57111597061157,0.3148674368858337,0.0263022128492593,0.5727855563163757,,,,,,,,0.5752773525599622,0.5709097244966176,0.6307509097527298,0.5825284127855175,100700.0,94600.0,96500.0,98400.0,55.57111597061157,0.27346515709976577,0.01077979854857166,-0.0009364669130122595,-0.21895624572478856,5.408063425373204,0.008855765212215514,7.094443060619081,55.57111597061157,0.3779510527921402,-2.9473523649288753e-05,0.49997842086440636,0.0,0.0,0.0,1.0,0.0,1.402386978473882e-18,-9.568369488545757e-19,1.8111352631578947,3.368421052631582e-05,-7.947368421052609e-05,0.0,0.0,0.0,55.57111597061157,3.615000009536743,False,True,False,True,True,False,False,1747.022336118348,3053375.6327709053,1647.968285857337,2715900.4083197378,1681.9178933417388,2828605.091582652,1723.60282000925,2971445.3207191154,-0.3293393623348839,0.040682096214663246,8.934984965156037,0,0.0,0.0010579472824527045,0.6593429816989349,0.0016237679397780808
45,289,0.45000000000000023,0.3122972872252289,0.022577849008204046,0.6002016860099889,-0.00044026762264459196,0.3147245457275544,0.001467412893977784,0.949181812499799,0.0031289400648811224,0.6683564308860921,-0.0013660823183070843,1.8710905574498544,-0.05237220083781386,-0.04399759359555138,-0.1054180394846707,-2.309345170303561,-0.03283407493983096,55.58372378349304,0.332705944776535,0.0259241908788681,0.5728268027305603,,,,,,,,0.5796157937159714,0.5726009080146238,0.6384768157461493,0.576660676403704,97400.0,93500.0,96200.0,97400.0,55.58372378349304,0.25001579485413267,-0.019736530081033293,0.008700698573847466,-0.2424056176001084,5.1328269467488665,0.023819791749954845,7.104273852272509,55.58372378349304,0.3779510527921402,-2.9473523649288753e-05,0.49997842086440636,0.0,0.0,0.0,1.0,0.0,1.402386978473882e-18,-9.568369488545757e-19,1.8111352631578947,3.368421052631582e-05,-7.947368421052609e-05,0.0,0.0,0.0,55.57111597061157,3.615000009536743,False,True,False,True,True,False,False,1716.17181202084,2946224.573058894,1633.970284520497,2669788.2249277574,1694.1818184084375,2870786.2070272556,1690.7039849560263,2858782.0853948942,-0.3461568646192603,-0.00497532043292174,8.733277771109972,0,0.0,-0.0016451161631976542,0.6396370432141061,0.00162181409329942
46,290,0.46,0.33033897712181737,0.022166119398180858,0.6002035692981875,-0.0005969107875333272,0.3045534429004038,0.0029624636186866547,0.9524904555555033,0.006567684638494719,0.6459237932186997,-0.0006655496410911508,1.9238109383730153,-0.05141563305611444,-0.07115614238877645,-0.07918014740776684,-2.6151890397373423,-0.059884409979119174,55.59129238128662,0.3512990474700928,0.0254470482468605,0.5726799964904785,,,,,,,,0.5930407309976652,0.579980497455287,0.6268808019877306,0.5760344479263229,97100.0,93500.0,98700.0,95200.0,55.59129238128662,0.32164594646727707,-0.03316252989046463,0.013654303259796035,-0.17077546899128565,4.897205972015817,0.040927706314320265,7.172966384988714,55.59129238128662,0.4379510527921402,-2.9473523649288753e-05,0.49997842086440636,0.0,0.0,0.0,1.0,0.0,1.402386978473882e-18,-9.568369488545757e-19,1.858135263157895,3.368421052631582e-05,-7.947368421052609e-05,0.0,0.0,0.0,55.61725234985352,3.609999895095825,False,True,False,True,True,False,False,1694.979041078008,2872665.7457115245,1628.6686924842393,2652533.8837898504,1711.0096985894033,2928149.300962377,1666.1451303629112,2775765.1816574736,-0.3894734338370478,0.012066581584378906,8.676540423351005,0,0.0,-0.0016432269405830364,0.6200116494136632,0.009716015109325933
47,291,0.47000000000000025,0.3488939684116564,0.02175743684189556,0.600030379036243,-0.0006644180897544425,0.2930069927323917,0.003764243113685173,0.9561026572666259,0.008383373416328931,0.6201726609225731,-0.0002975022489178498,1.9737011087014154,-0.051181795050007015,-0.09536465915818305,-0.036231996775248965,-2.8776511763709385,-0.07228586057394809,55.6015248298645,0.3898461163043976,0.0247619841247797,0.5721312761306763,,,,,,,,0.6017612974546988,0.5885153220408568,0.6107160939597206,0.5783972332030758,97100.0,92900.0,98400.0,94300.0,55.6015248298645,0.47215468419714735,-0.03008953097069183,0.012072346540968483,-0.020266728132163084,4.698442946626811,0.052457380735109874,7.310981648575062,55.6015248298645,0.4379510527921402,-2.9473523649288753e-05,0.49997842086440636,0.0,0.0,0.0,1.0,0.0,1.402386978473882e-18,-9.568369488545757e-19,1.858135263157895,3.368421052631582e-05,-7.947368421052609e-05,0.0,0.0,0.0,55.61725234985352,3.609999895095825,False,True,False,True,True,False,False,1687.4589229271346,2846817.794948556,1631.7219179881965,2662654.0240102233,1717.6795251020148,2950632.1977329394,1652.7345914288564,2731236.854958059,-0.41879916019511443,0.014690871252049313,8.691191415325157,0,0.0,-0.0016408817542048345,0.5948732953605921,0.01239698412072845
48,292,0.48000000000000004,0.3679563769818557,0.021353512414464964,0.599667047684365,-0.0007452253420487631,0.280238312494944,0.0038188904310515635,0.9599225744428824,0.00839871824420395,0.5913697542608254,-0.000512323378139473,2.0191188498550012,-0.05060049058076236,-0.11640450592294543,-0.006774025406867607,-3.105496600302483,-0.06861392495522822,55.61725234985352,0.3898461163043976,0.0247619841247797,0.5721312761306763,,,,,,,,0.5996044159459717,0.5925457346515064,0.6080032083120591,0.5830563021984407,96200.0,94900.0,98400.0,94900.0,55.61725234985352,0.616643783473132,-0.025228896749136368,0.0062236627333412085,0.12422237396273882,4.469068307021593,0.0485309143422822,7.492294867071571,55.61725234985352,0.4379510527921402,-2.9473523649288753e-05,0.49997842086440636,0.0,0.0,0.0,1.0,0.0,1.402386978473882e-18,-9.568369488545757e-19,1.858135263157895,3.368421052631582e-05,-7.947368421052609e-05,0.0,0.0,0.0,55.61725234985352,3.609999895095825,False,True,False,True,True,False,False,1684.3624073870546,2836896.264556233,1639.582876588229,2688410.510125871,1710.5512759139124,2925949.1559209228,1645.7495847928014,2708560.9911737745,-0.4486686457789828,0.03337172753432375,8.707158519872957,0,0.0,-0.001639674742622262,0.5675071380798044,0.0016164497471370266
49,293,0.49000000000000027,0.3875214897206356,0.02096166871723406,0.5990848349977496,-0.0009246056750071778,0.2664124858986448,0.0034568033080480155,0.9638524695058573,0.007362991734821782,0.5599293613660321,-0.0012513454360194333,2.060439991192708,-0.04891537216966538,-0.13551903413442307,-0.011028116368305804,-3.3045066381570574,-0.06164763908262917,55.62157320976257,0.4297016263008117,0.0242338366806507,0.5707787871360779,,,,,,,,0.5934769431963346,0.5918601374975673,0.624526083518723,0.5882798296089908,96500.0,94000.0,96800.0,93800.0,55.62157320976257,0.6572889031542587,-0.02988600618840135,0.0017498296055764554,0.16486749346192175,4.176720375728435,0.030224751342121547,7.693580715440869,55.62157320976257,0.5009510527921401,-2.9473523649288753e-05,0.49997842086440636,0.0,0.0,0.0,1.0,0.0,1.402386978473882e-18,-9.568369488545757e-19,1.8751352631578948,3.368421052631582e-05,-7.947368421052609e-05,0.0,0.0,0.0,55.6413094997406,3.609999895095825,False,True,False,True,True,False,False,1675.8169772538888,2808813.453113986,1648.89602201435,2719001.3402382988,1701.5138554407024,2894831.432171328,1639.7058769815494,2688941.825411346,-0.5291649876206468,0.027230267694087307,8.745248972127538,0,0.0,-0.0016440960858542185,0.5393361989917175,0.004320923394029799
50,294,0.5,0.4075925835681502,0.020591582441995597,0.5982541306453913,-0.0012211805741799615,0.2516731078825148,0.003255374912047962,0.9678060539286492,0.006595740058005743,0.5263456901907122,-0.0022077206359212244,2.0998713197871783,-0.04632295165081278,-0.15390866179237628,-0.038979013422206985,-3.4736386513174877,-0.06491388101131756,55.63097333908081,0.4297016263008117,0.0242338366806507,0.5707787871360779,,,,,,,,0.5936600160832807,0.5927103667823663,0.6485111886435357,0.5936872484337262,95200.0,94300.0,97700.0,93800.0,55.63097333908081,0.5732784410856515,-0.04207552788828868,0.0032026199406970544,0.08085702999633912,3.8681985961821708,0.01905561858475979,7.9245906941864765,55.63097333908081,0.5009510527921401,-2.9473523649288753e-05,0.49997842086440636,0.0,0.0,0.0,1.0,0.0,1.402386978473882e-18,-9.568369488545757e-19,1.8751352631578948,3.368421052631582e-05,-7.947368421052609e-05,0.0,0.0,0.0,55.6413094997406,3.5999999046325684,False,True,False,True,True,False,False,1663.1245851392837,2766503.916465802,1658.0759616110238,2749422.2459228085,1705.7248952507166,2909493.7120568007,1634.927955332047,2673211.6138892863,-0.611930730052801,-0.015635486053291507,8.789398966328296,0,0.0,-0.0016486920800416031,0.5083519088752413,0.00704066576519693
51,295,0.5100000000000002,0.42817751986086244,0.02025033110291068,0.5971576846127574,-0.0015585025898658678,0.2361159805296716,0.003845775351051621,0.9717160206666032,0.007515211990563892,0.49108616744446304,-0.0029356067680105596,2.139856236770942,-0.043749686678238996,-0.17159378359227379,-0.060130680586924064,-3.6131480930331508,-0.07896826959825796,55.6413094997406,0.4505164325237274,0.0239256061613559,0.5697860717773438,,,,,,,,0.6027740199936094,0.6008752346094688,0.6627372644723231,0.6014568398804302,94300.0,96800.0,99300.0,93200.0,55.6413094997406,0.46324583797234636,-0.051362751472919986,0.008611026353346053,-0.02917557366511785,3.5991773075012925,0.033377012454157216,8.19515621972224,55.6413094997406,0.5009510527921401,-2.9473523649288753e-05,0.49997842086440636,0.0,0.0,0.0,1.0,0.0,1.402386978473882e-18,-9.568369488545757e-19,1.8751352631578948,3.368421052631582e-05,-7.947368421052609e-05,0.0,0.0,0.0,55.6413094997406,3.5999999046325684,False,True,False,True,True,False,False,1656.0019669728306,2742463.7695388566,1666.939376036968,2779040.64553577,1726.6669079243422,2982255.4762161747,1635.5091769315557,2674844.5752999103,-0.6817699487787077,0.008964119099474983,8.921086958303402,0,0.0,-0.0016530247313090842,0.47711045719095807,0.01520350511962389
52,296,0.52,0.4492732868814022,0.019937760648915028,0.5957974355159384,-0.0017846553004964296,0.21978109417306163,0.005702602530396104,0.9755309149247555,0.011162766982468151,0.4544971341817714,-0.0029950383651063317,2.1810762441507494,-0.041822143411768244,-0.1876595795755419,-0.05302204321560452,-3.7329647018062104,-0.09312822005867064,55.65146088600159,0.4505164325237274,0.0239256061613559,0.5697860717773438,,,,,,,,0.6163415235688965,0.6143632957506464,0.6633940607456257,0.610947906500434,95200.0,95500.0,100700.0,94300.0,55.65146088600159,0.46616749924483514,-0.05029739903407858,0.011359394051377873,-0.026253911989562062,3.3598271735717233,0.06294713365379008,8.488138027465862,55.65146088600159,0.5009510527921401,-2.9473523649288753e-05,0.49997842086440636,0.0,0.0,0.0,1.0,0.0,1.402386978473882e-18,-9.568369488545757e-19,1.8751352631578948,3.368421052631582e-05,-7.947368421052609e-05,0.0,0.0,0.0,55.6413094997406,3.5999999046325684,False,True,False,True,True,False,False,1661.100619045007,2759099.9121049168,1676.910114756903,2812396.8055916186,1755.3067721199413,3081920.535318911,1641.370718794433,2693816.326498099,-0.6687439194238625,0.02693252251863337,9.109554650232052,0,0.0,-0.004379550285265976,0.4430066076183935,0.012522312467079957
53,297,0.5300000000000002,0.4708442012271087,0.01964357692481544,0.5941928184483452,-0.0017440016826119726,0.20266374649632787,0.00891710820218257,0.9792062344039246,0.017725206268591993,0.4167632264887417,-0.00213715525882442,2.221465883745423,-0.04010323578736265,-0.20131333941253066,-0.024225734740636013,-3.8482045446378668,-0.10307879156460431,55.66208744049072,0.4505164325237274,0.0239256061613559,0.5697860717773438,,,,,,,,0.6305634957102616,0.6268571713525255,0.6658597953470349,0.6152333086618503,97100.0,96500.0,101400.0,94600.0,55.66208744049072,0.6211328886355545,-0.040844223935838676,0.009357497769915743,0.12871147783941186,3.097879636673998,0.08058460500205916,8.791535754542439,55.66208744049072,0.5639510527921401,-2.9473523649288753e-05,0.49997842086440636,0.0,0.0,0.0,1.0,0.0,1.402386978473882e-18,-9.568369488545757e-19,1.856135263157895,3.368421052631582e-05,-7.947368421052609e-05,0.0,0.0,0.0,55.671507120132446,3.5999999046325684,False,True,False,True,True,False,False,1677.2288021566765,2812959.3028025627,1690.5097624336436,2857849.8754219534,1782.0835103103973,3175271.5687887957,1645.3863442686927,2707172.640507161,-0.7342978880483955,0.011108041592236528,9.309419132207966,0,0.0,-0.004390448248325661,0.40863386614288805,0.01528232727841044
54,298,0.54,0.49280380922805145,0.019347118198440403,0.5923725809048537,-0.0013700851796032453,0.18473756805714123,0.013003712580408373,0.9827008991926587,0.026147794190663893,0.3779294986710908,-0.0004816874118247923,2.2573874190483054,-0.03758793823887457,-0.21241262366624403,0.0007711580675281906,-3.964197825911579,-0.12344006978353156,55.671507120132446,0.4505164325237274,0.0239256061613559,0.5697860717773438,,,,,,,,0.6456992666286907,0.6384173986824776,0.6891396074360195,0.6087854737438493,96800.0,98000.0,104500.0,93500.0,55.671507120132446,0.8131842263855699,-0.034126511434314555,0.009279073436368468,0.3207628156000485,2.789818838619469,0.07079364886247153,9.122883974910009,55.671507120132446,0.5639510527921401,-2.9473523649288753e-05,0.49997842086440636,0.0,0.0,0.0,1.0,0.0,1.402386978473882e-18,-9.568369488545757e-19,1.856135263157895,3.368421052631582e-05,-7.947368421052609e-05,0.0,0.0,0.0,55.671507120132446,3.568000078201294,False,True,False,True,True,False,False,1700.4694312290635,2891762.5347632235,1708.801287848854,2919550.957551392,1807.3481631643272,3264911.273906719,1639.6661173630223,2689148.7452644557,-0.7295287127530226,0.04334815756940112,9.480101608664555,0,0.0,-0.004401320715528926,0.3713472126190982,0.012584559983956882
55,299,0.5500000000000003,0.5150101352537038,0.01902052686552761,0.5903633414572456,-0.0007460749333767731,0.16598026534086407,0.016880780183827385,0.9859842971112449,0.03412421893079796,0.3379661451699936,0.0014295817839632828,2.286369351586328,-0.03403366228670943,-0.2207798432062923,0.002658705205494938,-4.067252914436864,-0.17548936015209807,55.6812789440155,0.4505164325237274,0.0239256061613559,0.5697860717773438,,,,,,,,0.6634359598657327,0.6549763578895658,0.7319737403221069,0.5991836688155636,98400.0,100000.0,105300.0,93200.0,55.6812789440155,0.871319903368524,-0.04474162727374553,0.018285170624602946,0.378898492383446,2.4533451810147304,0.03798976983682596,9.497141811335748,55.6812789440155,0.5639510527921401,-2.9473523649288753e-05,0.49997842086440636,0.0,0.0,0.0,1.0,0.0,1.402386978473882e-18,-9.568369488545757e-19,1.856135263157895,3.368421052631582e-05,-7.947368421052609e-05,0.0,0.0,0.0,55.671507120132446,3.568000078201294,False,True,False,True,True,False,False,1728.226791847964,2987240.6070568864,1730.857031319805,2995697.5130254803,1839.7104361734491,3384102.7590524866,1624.0606344287937,2638434.3392818663,-0.8364294670585695,0.007424482953342533,9.792092671119335,0,0.0,-0.0016693017476182444,0.3337669188465388,0.034543786436741095
56,300,0.56,0.5372792070818948,0.018635384937081206,0.5881773424354604,-9.11365703501213e-05,0.14639605733789374,0.0191552428048351,0.989040576904271,0.03872448102567786,0.29684638482202735,0.0027964675247044847,2.3086143790378855,-0.030629724284497936,-0.22531013160734775,-0.017177614229290365,-4.133299909097824,-0.2588193681161504,55.691314697265625,0.4505164325237274,0.0239256061613559,0.5697860717773438,,,,,,,,0.6831487258170177,0.6750648590562133,0.7679537417238338,0.6052805817206602,101400.0,100000.0,106800.0,92300.0,55.691314697265625,0.7315686542149054,-0.07589495086450165,0.03308858178863705,0.23914724313445135,2.099541368511968,-0.005109758630063741,9.919572475616718,55.691314697265625,0.6239510527921401,-2.9473523649288753e-05,0.49997842086440636,0.0,0.0,0.0,1.0,0.0,1.402386978473882e-18,-9.568369488545757e-19,1.8071352631578947,3.368421052631582e-05,-7.947368421052609e-05,0.0,0.0,0.0,55.70208406448364,3.568000078201294,False,True,False,True,True,False,False,1757.3165160121357,3088421.991379874,1756.2944461606362,3085682.895529816,1883.4996844271363,3549581.06691901,1609.287207188218,2589068.524975821,-0.8631477788478348,-0.03303295313786378,10.091486879146059,0,0.0,0.001074404195994561,0.2932434328626252,0.04835013160199161
57,301,0.5699999999999998,0.5594146317881145,0.018171639991888658,0.5858016211261583,0.00032607444993210837,0.12603398054075152,0.018665053948708377,0.9918502634902097,0.0375474904945381,0.2546162035506776,0.0029001985594679595,2.3251377129169017,-0.02919656752162986,-0.2247963155663686,-0.04423491776817722,-4.150288797295516,-0.33843321187215925,55.70208406448364,0.4505164325237274,0.0239256061613559,0.5697860717773438,,,,,,,,0.6987231664854553,0.6899273029871302,0.7731699457628581,0.6387183272592829,102700.0,101700.0,111100.0,92600.0,55.70208406448364,0.49659819564434693,-0.10647154792578575,0.04119556311353624,0.0041767846137347325,1.7090753786431447,-0.04091700563379118,10.427391596964995,55.70208406448364,0.6239510527921401,-2.9473523649288753e-05,0.49997842086440636,0.0,0.0,0.0,1.0,0.0,1.402386978473882e-18,-9.568369488545757e-19,1.8071352631578947,3.368421052631582e-05,-7.947368421052609e-05,0.0,0.0,0.0,55.70208406448364,3.568000078201294,False,True,False,True,True,False,False,1782.9674359172782,3178795.91766084,1785.5033156223642,3189502.3093175916,1928.5326025612694,3721487.055580824,1612.4758439751497,2597961.5225892863,-0.9610278302061397,-0.0003355531010321017,10.569427541407974,0,0.0,0.001076497186686992,0.2525275591338051,0.037434417987383575
58,302,0.5800000000000001,0.5812446367320371,0.017626088248512684,0.5831927468998528,0.00030202056661377224,0.10500354754765918,0.015023253340189268,0.994358318537669,0.029847459913093257,0.21144463319623996,0.0014427656338418398,2.3347754712556386,-0.03065550898439421,-0.2202332341653233,-0.06658904913931701,-4.134410275158693,-0.3649243843844675,55.71218132972717,0.4505164325237274,0.0239256061613559,0.5697860717773438,,,,,,,,0.7000020447495593,0.7041662335458054,0.7581001203120998,0.6894164559419926,102000.0,104900.0,112800.0,93800.0,55.71218132972717,0.3162020864290093,-0.10790669711015219,0.033128929381445626,-0.17621932453454234,1.2656635221117105,-0.04055753962210307,11.036956975800951,55.71218132972717,0.6239510527921401,-2.9473523649288753e-05,0.49997842086440636,0.0,0.0,0.0,1.0,0.0,1.402386978473882e-18,-9.568369488545757e-19,1.8071352631578947,3.368421052631582e-05,-7.947368421052609e-05,0.0,0.0,0.0,55.70208406448364,3.526000022888184,False,True,False,True,True,False,False,1800.7539350659704,3242744.440893724,1818.333845318582,3305566.033571871,1957.3253769535283,3831000.650436177,1646.2137991313743,2709910.8658324126,-1.0644241579578904,-0.011232472008553207,10.988839425509331,0,0.0,0.0010782304701233583,0.2115805544180201,0.03473778530907868
59,303,0.5899999999999999,0.6026548080546451,0.017016626819010217,0.5802833441839125,-0.00021799659069718488,0.0834844893778258,0.008854422197267649,0.996469714400976,0.016990279017958694,0.16764401834421044,-0.001306633282140358,2.334698065774685,-0.03414862662464753,-0.21490612740393955,-0.07948250870164887,-4.117742647355824,-0.3107257371770241,55.721749782562256,0.4505164325237274,0.0239256061613559,0.5697860717773438,,,,,,,,0.6847090482908103,0.7391810835197778,0.7590196737300194,0.7330778802940745,103800.0,106800.0,111900.0,98000.0,55.721749782562256,0.2339645601742058,-0.08383955077214192,0.010754136622835798,-0.2584568507822019,0.7894195925876493,0.011146316656522666,11.623271144567472,55.721749782562256,0.6839510527921402,-2.9473523649288753e-05,0.49997842086440636,0.0,0.0,0.0,1.0,0.0,1.402386978473882e-18,-9.568369488545757e-19,1.7241352631578948,3.368421052631582e-05,-7.947368421052609e-05,0.0,0.0,0.0,55.74141001701355,3.526000022888184,False,True,False,True,True,False,False,1806.7536857283517,3265100.423740417,1857.3414926605749,3446740.5485610957,1965.861595670021,3862442.8039727747,1706.7162016027162,2915801.300552402,-1.1353469538854943,0.011306902362125365,11.591184827460992,0,0.0,0.001079747140619337,0.16770560594730072,0.032025860464692
60,304,0.6000000000000001,0.6236053065143976,0.016379416981685845,0.5770041401794594,-0.0011248726005890905,0.061720742849825164,0.0015761947313474365,0.9980915790516756,0.001956576574909978,0.12364878291668906,-0.004636387032905453,2.324394157074299,-0.03757640667440862,-0.2103959604639702,-0.0791038763741751,-4.110890368174488,-0.19124752634482367,55.73127818107605,0.4505164325237274,0.0239256061613559,0.5697860717773438,,,,,,,,0.6705701129909916,0.7989200323545385,0.7922242500648118,0.753051349873432,103400.0,109500.0,114100.0,101400.0,55.73127818107605,0.20208414592866236,-0.07530827931599854,-0.015087540262324551,-0.29033726505578034,0.30777093011755485,0.07712491172035554,12.030062059457222,55.73127818107605,0.6839510527921402,-2.9473523649288753e-05,0.49997842086440636,0.0,0.0,0.0,1.0,0.0,1.402386978473882e-18,-9.568369488545757e-19,1.7241352631578948,3.368421052631582e-05,-7.947368421052609e-05,0.0,0.0,0.0,55.74141001701355,3.526000022888184,False,True,False,True,True,False,False,1798.9461306459727,3236706.466754877,1909.6600622205,3646099.8106531957,1972.451479407233,3889133.4293349753,1772.3486250474307,3143181.539773097,-1.1336259853925827,0.06547371474156682,12.07033224787208,0,0.0,-0.004446991490966467,0.12091279131091648,-0.02321682305077066
61,305,0.6100000000000003,0.6441262776760373,0.015759411972361217,0.5733179034469522,-0.0021976588288056664,0.03999183847010243,-0.0051484476818265375,0.9991843256566432,-0.011818104254497561,0.07995193281975219,-0.00771114645983657,2.3074023232320635,-0.03915096070186058,-0.20385231053119418,-0.06114645342363407,-4.08277662650435,-0.056088843991723904,55.74141001701355,0.4505164325237274,0.0239256061613559,0.5697860717773438,,,,,,,,0.6857342756278259,0.8473334502513342,0.8301007772378057,0.7563637331789873,102400.0,111500.0,113200.0,104200.0,55.74141001701355,0.21025157266681713,-0.10701298980050977,-0.03148594258820926,-0.28216983833366016,-0.2040698025606963,0.10529536754956226,12.351309692617988,55.74141001701355,0.6839510527921402,-2.9473523649288753e-05,0.49997842086440636,0.0,0.0,0.0,1.0,0.0,1.402386978473882e-18,-9.568369488545757e-19,1.7241352631578948,3.368421052631582e-05,-7.947368421052609e-05,0.0,0.0,0.0,55.74141001701355,3.526000022888184,False,True,False,True,True,False,False,1784.729448299232,3183768.9867891707,1976.2859555439204,3909425.1820311425,1998.6131231232503,3996829.359533978,1819.1137272909584,3307703.412887938,-1.2288638088143427,0.08285838037652339,12.258442304154624,0,0.0,-0.004450016243025985,0.08227274302258986,-0.01216910356493133
62,306,0.6200000000000001,0.6642942414184498,0.015198181474622499,0.5692562617020117,-0.0031867266552775436,0.018566175573126852,-0.009964921513502393,0.9997728953302556,-0.021585139121178508,0.03701397257199144,-0.009907689559304761,2.287895372005983,-0.03859686263471204,-0.1922322674000354,-0.028875377139890697,-3.9948716953956724,0.04220098237631256,55.75122332572937,0.4505164325237274,0.0239256061613559,0.5697860717773438,,,,,,,,0.7382124247835486,0.8481077925975304,0.8375930082992087,0.7679204157655003,102400.0,117900.0,116300.0,106400.0,55.75122332572937,0.29163219210419855,-0.14150292118174648,-0.03081404612636781,-0.2007892188904709,-0.8000097480658057,0.10280983815657341,12.8416807369534,55.75122332572937,0.6839510527921402,-2.9473523649288753e-05,0.49997842086440636,0.0,0.0,0.0,1.0,0.0,1.402386978473882e-18,-9.568369488545757e-19,1.7241352631578948,3.368421052631582e-05,-7.947368421052609e-05,0.0,0.0,0.0,55.74141001701355,3.4679999351501465,False,True,False,True,True,False,False,1784.1701625725696,3181107.7194264787,2039.9928924085184,4164864.2617084,2041.6945669616398,4172663.5522472593,1842.3013135370804,3391610.2103045667,-1.2029797132613225,-0.02104101684227664,12.729275252000484,0,0.0,-0.007218811722324519,0.038034079983729464,-0.017708016925249873
63,307,0.6300000000000003,0.6842003934197477,0.014723662778667145,0.5649500307938022,-0.0038847140707164644,-0.0023513505314831525,-0.012108327039529387,0.9999163807856989,-0.025839994442737536,-0.004835062624748351,-0.011002246481912215,2.2667872919676895,-0.03689676565030052,-0.17803241802238182,0.003354812825357013,-3.8607239873908545,0.08124745842811397,55.76132798194885,0.4505164325237274,0.0239256061613559,0.5697860717773438,,,,,,,,0.7974676525037505,0.8224531949560657,0.8255874722415535,0.7996731779289474,103400.0,119300.0,120200.0,106800.0,55.76132798194885,0.4055833555359403,-0.11807678039854294,-0.017320564644654715,-0.08683805544862014,-1.4493727924587092,0.11067393056499802,13.470561960617994,55.76132798194885,0.7399510527921401,-2.9473523649288753e-05,0.49997842086440636,0.0,0.0,0.0,1.0,0.0,1.402386978473882e-18,-9.568369488545757e-19,1.612135263157895,3.368421052631582e-05,-7.947368421052609e-05,0.0,0.0,0.0,55.77131652832031,3.4679999351501465,False,True,False,True,True,False,False,1814.9159477946228,3295560.444111415,2077.3164848620013,4314407.214300385,2076.394629693973,4312041.056942973,1860.50721683758,3461423.853551595,-1.3663553769677936,0.03134885719978597,13.527411392024842,0,0.0,-0.007219164057458829,-0.006238158553785009,-0.012174618655512738
64,308,0.6400000000000001,0.703922203803314,0.014344273836767786,0.5606412962739996,-0.004163474916886989,-0.022662709630889552,-0.01139186438942161,0.999669591662433,-0.02426671332383612,-0.045472658193723564,-0.01115008382367063,2.24239739501919,-0.035065609211896595,-0.16614865122972328,0.021215643812256126,-3.7503205699368762,0.07928805335903014,55.77131652832031,0.4505164325237274,0.0239256061613559,0.5697860717773438,,,,,,,,0.8186115337586568,0.8324203069289475,0.8427034906520146,0.8263815432462506,106400.0,121000.0,121500.0,106000.0,55.77131652832031,0.44785051740841286,-0.04306943263619167,-0.004921163546669211,-0.044570893574275364,-2.0248121500261305,0.128801579240007,13.910047405256204,55.77131652832031,0.7399510527921401,-2.9473523649288753e-05,0.49997842086440636,0.0,0.0,0.0,1.0,0.0,1.402386978473882e-18,-9.568369488545757e-19,1.612135263157895,3.368421052631582e-05,-7.947368421052609e-05,0.0,0.0,0.0,55.77131652832031,3.4679999351501465,False,True,False,True,True,False,False,1869.4727287574497,3499270.4324542945,2088.803200538733,4360717.834021805,2089.7902433717295,4364198.545870554,1891.8120904231903,3581841.7758913734,-1.3271715968703743,0.050994681785066595,14.046252692123625,0,0.0,-0.007218244222775638,-0.04773903962877405,-0.02324018223676084
65,309,0.6499999999999999,0.7235030586950387,0.014047631728562694,0.5566605963841516,-0.003985580677550551,-0.042383777002658114,-0.008097496445595254,0.9990606393732891,-0.017487041710167725,-0.08499704706468561,-0.01072117968281955,2.213709773276409,-0.033462555660148254,-0.15474870090895432,0.023936583634703343,-3.7105489487882735,0.07164440383374707,55.7837028503418,0.4505164325237274,0.0239256061613559,0.5697860717773438,,,,,,,,0.794140899641472,0.8940772614285413,0.904630001027483,0.8135783308616855,110300.0,118800.0,118600.0,111500.0,55.7837028503418,0.4108120234533871,-0.006190531118442526,-0.002889511958195165,-0.08160938753316685,-2.4864996030047353,0.13427435496185652,14.068922974583161,55.7837028503418,0.7399510527921401,-2.9473523649288753e-05,0.49997842086440636,0.0,0.0,0.0,1.0,0.0,1.402386978473882e-18,-9.568369488545757e-19,1.612135263157895,3.368421052631582e-05,-7.947368421052609e-05,0.0,0.0,0.0,55.77131652832031,3.4679999351501465,False,True,False,True,True,False,False,1916.5097141454396,3673898.8660379304,2104.8431565889696,4430846.499731448,2104.043458240316,4425770.10655846,1927.8843725306012,3719337.0857333965,-1.2797498817315793,-0.002589386971666094,14.240544098150993,0,0.0,-0.007215639835387299,-0.08367695234774908,-0.01770023616717918
66,310,0.6600000000000001,0.7429390826649621,0.01380392615679536,0.5533606299210586,-0.0034147501982235103,-0.06160468927330796,-0.002948306473535908,0.9980904313886397,-0.006980807781404863,-0.12364617597283856,-0.01011357121864121,2.1811772793228323,-0.03224790368963003,-0.13421367887537108,0.020957102953757006,-3.691409486267452,0.0730697760379834,55.7911593914032,1.0141409635543823,0.0135331852361559,0.6104589104652405,,,,,,,,0.7709491818639809,0.9406034821092196,0.958696849212269,0.773023583883268,112800.0,122200.0,121700.0,112800.0,55.7911593914032,0.4107640960281306,-0.07095082328169759,-0.005228418843830021,-0.08165731496104811,-2.997327000065212,0.13342712177181548,14.233146425485543,55.7911593914032,0.7899510527921402,-2.9473523649288753e-05,0.49997842086440636,0.0,0.0,0.0,1.0,0.0,1.402386978473882e-18,-9.568369488545757e-19,1.4781352631578948,3.368421052631582e-05,-7.947368421052609e-05,0.0,0.0,0.0,55.81140089035034,3.45199990272522,False,True,False,True,True,False,False,1935.4491655953118,3743023.385537252,2148.2396560944762,4618473.745128831,2148.307777624342,4620126.810230233,1943.4001022317611,3777577.262772112,-1.2276910043978446,0.05426558144015199,14.353620794088563,0,0.0,-0.007211061071124212,-0.12232021134864841,-0.006632903475516911
67,311,0.6699999999999999,0.7621721574519708,0.013574479900307516,0.5510245872844314,-0.0026302253132727722,-0.08041967497933565,0.0028622564448970485,0.9967535127999616,0.004853049162174628,-0.16165616638823085,-0.009636656276244965,2.144744531877416,-0.03204276218885395,-0.09735982452267372,0.01408114307781144,-3.5939102806803342,0.06420243097773784,55.80128288269043,1.0141409635543823,0.0135331852361559,0.6104589104652405,,,,,,,,0.7951812564250493,0.9021944923440102,0.9460163200986809,0.7571977106465475,110700.0,127100.0,127700.0,111100.0,55.80128288269043,0.5133927923537974,-0.17047444946942084,0.0007121354878025354,0.02097138136523211,-3.7128807646459605,0.13222631347389474,14.548196930541266,55.80128288269043,0.7899510527921402,-2.9473523649288753e-05,0.49997842086440636,0.0,0.0,0.0,1.0,0.0,1.402386978473882e-18,-9.568369488545757e-19,1.4781352631578948,3.368421052631582e-05,-7.947368421052609e-05,0.0,0.0,0.0,55.81140089035034,3.45199990272522,False,True,False,True,True,False,False,1944.7670361313408,3780724.198949266,2197.894895775804,4831548.296948631,2213.4082982263963,4904583.4439509595,1932.9937321738926,3737035.6015162487,-1.2814656588262778,0.06949881031686717,15.056812889078271,0,0.0,-0.007205060131268762,-0.15812083371155453,-0.003865658706891895
68,312,0.6800000000000002,0.7810894446015632,0.013324766710523898,0.5497892190999687,-0.0019231955291601434,-0.0988727470366475,0.00774680852118349,0.9950680721287966,0.014832104349754257,-0.19915440865064743,-0.009480668515064516,2.1028466163902437,-0.03358262169802764,-0.047783364022949824,-0.009698711696100515,-3.409126432116876,0.017505480247012487,55.81140089035034,1.0141409635543823,0.0135331852361559,0.6104589104652405,,,,,,,,0.8463046071135822,0.8028531764278115,0.8821073219540838,0.7846370732378699,111100.0,126800.0,131000.0,107900.0,55.81140089035034,0.6436741646085786,-0.17475331846545034,0.016995133809776596,0.15125275362151513,-4.501991480619985,0.09662966348426913,14.781279024318474,55.81140089035034,0.7899510527921402,-2.9473523649288753e-05,0.49997842086440636,0.0,0.0,0.0,1.0,0.0,1.402386978473882e-18,-9.568369488545757e-19,1.4781352631578948,3.368421052631582e-05,-7.947368421052609e-05,0.0,0.0,0.0,55.81140089035034,3.45199990272522,False,True,False,True,True,False,False,1979.5466189253614,3922866.76419314,2207.3492870755563,4871927.640117696,2256.0666241045383,5090290.811147846,1922.4721832961548,3696813.0824852516,-1.4426786457146452,0.08022477278433517,15.433531222216475,0,0.0,-0.004437774496222668,-0.19929699456274536,0.01820532914396325
69,313,0.69,0.7995291435875677,0.013038002955525669,0.549616319845598,-0.001639515937065235,-0.11695676521951139,0.010050312055153207,0.9930847991407754,0.019623980913987114,-0.23616191436250875,-0.009727965474141646,2.053705612391985,-0.036359678047826256,0.003892802779126422,-0.059992160686241684,-3.2671701896633043,-0.06535254307204108,55.82131791114807,1.0141409635543823,0.0135331852361559,0.6104589104652405,,,,,,,,0.8550751979775957,0.7396236014023965,0.8399778448800036,0.8072902912828861,117400.0,124700.0,128800.0,110700.0,55.82131791114807,0.7073881040397413,-0.06819477053254604,0.03222237754728162,0.21496669305307228,-5.065358388177174,0.007792952031488713,14.7321531341019,55.82131791114807,0.8379510527921401,-2.9473523649288753e-05,0.49997842086440636,0.0,0.0,0.0,1.0,0.0,1.402386978473882e-18,-9.568369488545757e-19,1.3181352631578949,3.368421052631582e-05,-7.947368421052609e-05,0.0,0.0,0.0,55.842281341552734,3.45199990272522,False,True,False,True,True,False,False,2038.9765279838703,4161816.8227204024,2162.601136919019,4680550.69306446,2252.1529758623283,5072527.004386324,1933.6741572767812,3740120.262562566,-1.4530597678992279,0.07403895507365908,15.428094150611873,0,0.0,-0.004431600084215708,-0.23758173221100443,0.015425569104440155
70,314,0.7000000000000002,0.8172935421104953,0.012723033110926946,0.5503197625691751,-0.002057951675995163,-0.1346543913621209,0.00860430130580178,0.9908531302472808,0.01684837285672351,-0.27268431392895953,-0.010355406016480715,1.9967478484564165,-0.037690536464215336,0.05042989952247676,-0.11972818525073181,-3.2983583353895787,-0.14504812084534707,55.83142328262329,1.0141409635543823,0.0135331852361559,0.6104589104652405,,,,,,,,0.7899380686372017,0.7657591167424074,0.8549298986354472,0.7793395972799233,120700.0,120000.0,126100.0,113200.0,55.83142328262329,0.6945448382360898,0.011039800411675384,0.03467100912998506,0.20212342724889934,-5.354098589278215,-0.061783158463384835,14.500249450967932,55.83142328262329,0.8379510527921401,-2.9473523649288753e-05,0.49997842086440636,0.0,0.0,0.0,1.0,0.0,1.402386978473882e-18,-9.568369488545757e-19,1.3181352631578949,3.368421052631582e-05,-7.947368421052609e-05,0.0,0.0,0.0,55.842281341552734,3.503999948501587,False,True,False,True,True,False,False,2075.042943052603,4304938.468965706,2106.5601447381914,4440132.631278029,2226.0718045499225,4957177.290561004,1953.282634181127,3815559.155796105,-1.1985431385263863,0.02439041928736123,15.43695512880174,0,0.0,-0.001674792911406743,-0.2702514991383273,0.023655301788694075
71,315,0.71,0.8341757957996407,0.012411481349250447,0.5516350938853636,-0.00324426243171502,-0.1519772516694232,0.003288043745572183,0.988373197989813,0.006209244672214932,-0.3088009337205029,-0.011215028380534346,1.9330482273318934,-0.03384650570298972,0.09336682468063397,-0.14796050451589315,-3.4615369688839612,-0.1725649292812582,55.842281341552734,1.0141409635543823,0.0135331852361559,0.6104589104652405,,,,,,,,0.6989483117227744,0.8258823587367342,0.8794367275882757,0.7290613272211788,117200.0,118600.0,127100.0,112400.0,55.842281341552734,0.625765504827305,-0.051997857772656156,0.02238663862905007,0.1333440938396941,-5.6674499292307114,0.0020995304487068196,14.229841858312202,55.842281341552734,0.8379510527921401,-2.9473523649288753e-05,0.49997842086440636,0.0,0.0,0.0,1.0,0.0,1.402386978473882e-18,-9.568369488545757e-19,1.3181352631578949,3.368421052631582e-05,-7.947368421052609e-05,0.0,0.0,0.0,55.842281341552734,3.503999948501587,False,True,False,True,True,False,False,2045.0127354781991,4184396.007496236,2093.332438282969,4380864.30393463,2215.550201539197,4907939.504658051,1953.2354540991792,3815728.627625469,-1.0420756357156717,-0.006237083657169226,15.280479797582773,0,0.0,-0.004418428286230775,-0.30278544163106247,0.020872207676400727
72,316,0.7200000000000002,0.850009676444255,0.012144187808825629,0.5533155444250313,-0.004960596548202193,-0.16897760515114899,-0.0047281428855045346,0.9855960664004918,-0.010003080705063231,-0.344690127280613,-0.012019384381491359,1.865546502033506,-0.0231129371201392,0.1391060518189526,-0.1081151729573736,-3.570587441497726,-0.12562458295476925,55.851256132125854,1.0141409635543823,0.0135331852361559,0.6104589104652405,,,,,,,,0.6556964398988112,0.8237100345710873,0.8452404261714016,0.7220786742933317,111500.0,121700.0,127100.0,110700.0,55.851256132125854,0.5038865904580472,-0.18795797832699584,0.0012980584944596394,0.011465179470489015,-6.2398677049590265,0.21409100422509778,13.893656351753894,55.851256132125854,0.8379510527921401,-2.9473523649288753e-05,0.49997842086440636,0.0,0.0,0.0,1.0,0.0,1.402386978473882e-18,-9.568369488545757e-19,1.3181352631578949,3.368421052631582e-05,-7.947368421052609e-05,0.0,0.0,0.0,55.842281341552734,3.503999948501587,False,True,False,True,True,False,False,1963.1049112871447,3859903.1728835744,2123.3528176699374,4506523.270447031,2219.8909790803723,4923427.657443337,1933.4873005412828,3740327.574973252,-1.1989123852095398,0.13749099250859403,15.19161655505003,0,0.0,-0.009892385724207552,-0.3378537182626801,-0.009319021679576926
73,317,0.73,0.8647445585653413,0.011952791937042016,0.5552400606641237,-0.006700867813332732,-0.18574466173412923,-0.013290621797609032,0.9824853069537758,-0.02751925834076404,-0.38060672120925026,-0.012366990297553166,1.798244976883272,-0.008197863683782086,0.1906031332853869,0.007132645209210224,-3.5104107286225776,-0.024745910348061825,55.86153769493103,1.0141409635543823,0.0135331852361559,0.6104589104652405,,,,,,,,0.678560971793823,0.7391714820554055,0.7514591706173759,0.7619413527749415,107900.0,123200.0,126300.0,109500.0,55.86153769493103,0.36724569517674555,-0.2215902341942175,-0.019371704540143378,-0.12517571581059275,-6.896653796046354,0.4515953730010918,13.417591550387455,55.86153769493103,0.8789510527921401,-2.9473523649288753e-05,0.49997842086440636,0.0,0.0,0.0,1.0,0.0,1.402386978473882e-18,-9.568369488545757e-19,1.1401352631578947,3.368421052631582e-05,-7.947368421052609e-05,0.0,0.0,0.0,55.87113904953003,3.503999948501587,False,True,False,True,True,False,False,1886.5610664471078,3559119.778386959,2140.290238314956,4581408.2100454485,2200.3461803076,4839861.152927822,1923.0692951916112,3699414.58554601,-1.372905243607132,0.1496148241654338,15.028942933971306,0,0.0,-0.012604116089593114,-0.375354359652571,-0.028440494532817728
74,318,0.7400000000000002,0.8785319339315759,0.011845156394951446,0.5575108565671605,-0.007862311907676691,-0.20240082653254876,-0.02006616003181597,0.9790655946830044,-0.04169833455595501,-0.41684659197933316,-0.011829038584918593,1.732905040211667,0.00487180851960109,0.24240810913784988,0.1712380574559825,-3.380961894905786,0.07870189829932261,55.87113904953003,1.0141409635543823,0.0135331852361559,0.6104589104652405,,,,,,,,0.7152871978877862,0.6527546499436798,0.6723395172347283,0.7704750291610365,106000.0,123200.0,123700.0,109100.0,55.87113904953003,0.29866285768747436,-0.09392897140570511,-0.028655582709765055,-0.19375855329978875,-7.260714554247494,0.571215274802853,12.816021476733734,55.87113904953003,0.8789510527921401,-2.9473523649288753e-05,0.49997842086440636,0.0,0.0,0.0,1.0,0.0,1.402386978473882e-18,-9.568369488545757e-19,1.1401352631578947,3.368421052631582e-05,-7.947368421052609e-05,0.0,0.0,0.0,55.87113904953003,3.578000068664551,False,True,False,True,True,False,False,1855.849154641178,3439937.234313948,2098.697654655239,4413506.179293053,2132.7958075814686,4555872.848540921,1934.9051615755216,3741956.9758370644,-1.4000358297342004,0.1049127254498319,14.663736940889223,0,0.0,-0.018028299840136482,-0.409876318328492,-0.05564806293894066
75,319,0.75,0.8917901263325299,0.01180117916689038,0.5605009872072908,-0.00798611813506991,-0.21908217760688528,-0.02346289957633454,0.9753915694302615,-0.04936471628065878,-0.45367938534747115,-0.010098749266384249,1.6656120887227623,0.011188549645619519,0.2836187051633728,0.3345500265375436,-3.383509676188063,0.13315158210652842,55.881025552749634,1.0141409635543823,0.0135331852361559,0.6104589104652405,,,,,,,,0.7053419007414118,0.6479523349987456,0.6756730479092394,0.686029938765736,107100.0,113200.0,116700.0,113200.0,55.881025552749634,0.32610652632658893,0.055982444882024536,-0.018227728203799184,-0.16631488466074262,-7.224783030945561,0.5269334542043784,12.145341821903406,55.881025552749634,0.8789510527921401,-2.9473523649288753e-05,0.49997842086440636,0.0,0.0,0.0,1.0,0.0,1.402386978473882e-18,-9.568369488545757e-19,1.1401352631578947,3.368421052631582e-05,-7.947368421052609e-05,0.0,0.0,0.0,55.87113904953003,3.578000068664551,False,True,False,True,True,False,False,1860.1135091404008,3458181.3040848267,2019.9818478183463,4088937.9857982723,2046.6212613407552,4194927.356217474,1938.0213322986383,3752849.068243311,-1.1416897115974516,0.08971536359984678,14.10312760107015,0,0.0,-0.017983333492385636,-0.44422800992747696,-0.05550926503941813
76,320,0.7600000000000002,0.9051985735016075,0.01177974665141972,0.5648047735773559,-0.006954614889797504,-0.23587821072877985,-0.023181024560670144,0.9714812109019102,-0.04988148401752522,-0.4912061886094095,-0.007172804137253413,1.5888427962816436,0.010835852603602602,0.30725090622503093,0.44515714993325994,-3.5794380424539396,0.11826526041680545,55.89103555679321,1.0141409635543823,0.0135331852361559,0.6104589104652405,,,,,,,,0.6465347281414089,0.7121513333523648,0.7430735450993118,0.5541121500678101,107500.0,110700.0,112800.0,109100.0,55.89103555679321,0.3758536475827546,0.05295505327309878,0.008316527917841203,-0.11656776340464314,-7.089501153528387,0.3824007832537863,11.446010377263072,55.89103555679321,0.9129510527921402,-2.9473523649288753e-05,0.49997842086440636,0.0,0.0,0.0,1.0,0.0,1.402386978473882e-18,-9.568369488545757e-19,0.9561352631578947,3.368421052631582e-05,-7.947368421052609e-05,0.0,0.0,0.0,55.90094327926636,3.578000068664551,False,True,False,True,True,False,False,1859.9627174769107,3460945.339360242,1964.4475421226446,3857974.1580942124,1998.0040026286224,3990959.7804267765,1890.6062164210293,3579032.308384336,-0.8586126130563789,0.041556223449662914,13.4519046501636,0,0.0,-0.015229260768563688,-0.47313481907426164,-0.044528476705061874
77,321,0.77,0.9195766986922576,0.011732204786406611,0.5710667089738184,-0.005046799606523496,-0.25274899666316647,-0.02012728539893528,0.9673093439443062,-0.044930746411887594,-0.5291828730337902,-0.0034795507818540738,1.5005733296594652,0.008157383439231797,0.31905088526670033,0.4744829418115674,-3.8091583099068886,0.056981667705829214,55.90094327926636,1.0141409635543823,0.0135331852361559,0.6104589104652405,,,,,,,,0.5914634063375248,0.7542717494939202,0.7844004911611904,0.485956178460186,104200.0,113200.0,114900.0,102000.0,55.90094327926636,0.36719870040077757,-0.10989587071598529,0.03149097969732743,-0.1252227105866182,-7.212853003642609,0.23660736760570436,10.755615292739765,55.90094327926636,0.9129510527921402,-2.9473523649288753e-05,0.49997842086440636,0.0,0.0,0.0,1.0,0.0,1.402386978473882e-18,-9.568369488545757e-19,0.9561352631578947,3.368421052631582e-05,-7.947368421052609e-05,0.0,0.0,0.0,55.90094327926636,3.578000068664551,False,True,False,True,True,False,False,1832.4611393752873,3361044.9442890338,1956.3669480751046,3824818.4961713906,2005.1086904610133,4018823.6985547203,1794.275527369331,3229782.2822209345,-0.8444737927553678,-0.005716016874425189,12.916193391111813,0,0.0,-0.009772095027455407,-0.5070432059928613,-0.028160146959396264
78,322,0.7800000000000002,0.9356407801535596,0.011616213353920615,0.579720979396955,-0.0028195450230417214,-0.2694924460242,-0.015825930508292178,0.9628683251749969,-0.03731682720105151,-0.5669706528686178,0.0001743005943140349,1.4123625307632992,0.006953981044985873,0.337339652224809,0.42900918933315557,-3.864143124069628,-0.002814717085107596,55.9115641117096,1.0141409635543823,0.0135331852361559,0.6104589104652405,,,,,,,,0.5874940702845834,0.7054995951005589,0.7381675741402169,0.5290495281070424,102000.0,114100.0,117200.0,96500.0,55.9115641117096,0.31979372008637347,-0.2657983209603069,0.029803490052454494,-0.17262769090099053,-7.591554575749834,0.13944387285493884,10.091898765196088,55.9115641117096,0.9129510527921402,-2.9473523649288753e-05,0.49997842086440636,0.0,0.0,0.0,1.0,0.0,1.402386978473882e-18,-9.568369488545757e-19,0.9561352631578947,3.368421052631582e-05,-7.947368421052609e-05,0.0,0.0,0.0,55.90094327926636,3.6050000190734863,False,True,False,True,True,False,False,1788.6110292494925,3200490.633723438,1960.1550241996308,3845314.86056766,2024.1080355480287,4097725.5944892885,1698.3698085760018,2886723.266888339,-0.9860292907935957,0.046754217161543425,12.555274813279665,0,0.0,-0.004342410003235176,-0.5431847041041107,-0.025369819655372963
79,323,0.79,0.9537034907741703,0.011405639204820872,0.5907380938385847,-0.0008624218834032136,-0.2858301561061669,-0.011732450371096083,0.9582080816279462,-0.029679871030385722,-0.6037681730319966,0.002928936516016371,1.3444722905310524,0.00681316938041295,0.38047292296732116,0.33427046712448477,-3.7079137616797304,-0.030542280594844214,55.92162275314331,1.0141409635543823,0.0135331852361559,0.6104589104652405,,,,,,,,0.6368376552215471,0.5738312655329925,0.6505706325458379,0.6065046241869565,100700.0,110700.0,114900.0,94300.0,55.92162275314331,0.3314881963901897,-0.2543191730334937,0.008893209899444456,-0.1609332145971608,-7.873547513289344,0.08038193825452136,9.426759000887635,55.92162275314331,0.9419510527921401,-2.9473523649288753e-05,0.49997842086440636,0.0,0.0,0.0,1.0,0.0,1.402386978473882e-18,-9.568369488545757e-19,0.7631352631578947,3.368421052631582e-05,-7.947368421052609e-05,0.0,0.0,0.0,55.94129943847656,3.6050000190734863,False,True,False,True,True,False,False,1755.7901486208045,3080713.798128113,1930.4039947856902,3731385.3614996895,2000.3922216225508,4003745.7615022706,1647.5737927547095,2709011.7382251294,-1.0634140243075354,-0.03216182673837874,12.288579503177205,0,0.0,-0.0016407311582852869,-0.5827166368474692,-0.02532839782915587
80,324,0.8000000000000003,0.9734501774371469,0.011094143614891474,0.6035042955538955,0.0004722932689668429,-0.3015957442520146,-0.008814965431167927,0.9533950285021361,-0.023872131859347032,-0.6390788179650231,0.00441445359418662,1.3077004102122025,0.004634302675571454,0.44943016901028066,0.21195398550946085,-3.503401044200954,-0.05524741788472015,55.93108129501343,1.0141409635543823,0.0135331852361559,0.6104589104652405,,,,,,,,0.7113265514317311,0.40634193788104045,0.6387173938520552,0.5977105771039048,102000.0,104500.0,111100.0,94300.0,55.93108129501343,0.4428429042850708,-0.0696093116930261,0.01685184853504012,-0.04957850670228843,-7.79201590812902,0.038898033591706224,8.764670465796332,55.93108129501343,0.9419510527921401,-2.9473523649288753e-05,0.49997842086440636,0.0,0.0,0.0,1.0,0.0,1.402386978473882e-18,-9.568369488545757e-19,0.7631352631578947,3.368421052631582e-05,-7.947368421052609e-05,0.0,0.0,0.0,55.94129943847656,3.6050000190734863,False,True,False,True,True,False,False,1754.4742058029744,3075914.859127707,1858.8472975279083,3452929.7465652386,1937.7377504348906,3752749.1300519723,1637.132273171138,2676182.8221566607,-0.8899875197268727,-0.051591871087517824,11.699656821875934,0,0.0,0.0010562332520957318,-0.621839426275459,-0.025385490733941474
81,325,0.81,0.9939333082709937,0.010691261111153203,0.6169210438676572,0.0012566285446692388,-0.3169091619229269,-0.007491735395870019,0.9484254730208205,-0.02109146909056725,-0.6731282622356248,0.0052756941091186595,1.2897911335118342,-0.0008039710858212345,0.5220212157073545,0.08746631541783727,-3.4438281314650094,-0.1706657554630924,55.94129943847656,1.0264396667480469,0.0129426959902048,0.6150583624839783,,,,,,,,0.7857574632900051,0.23915639541684408,0.7631804318810449,0.4678205133124635,100000.0,101400.0,109100.0,93500.0,55.94129943847656,0.5519362932601353,0.15870962283743512,0.1111200943237485,0.05951488227276581,-7.491880710393991,0.011057905750417967,8.21783491968,55.94129943847656,0.9419510527921401,-2.9473523649288753e-05,0.49997842086440636,0.0,0.0,0.0,1.0,0.0,1.402386978473882e-18,-9.568369488545757e-19,0.7631352631578947,3.368421052631582e-05,-7.947368421052609e-05,0.0,0.0,0.0,55.94129943847656,3.6050000190734863,False,True,False,True,True,False,False,1790.069461187115,3206245.6298424145,1760.8334508824219,3093512.335102458,1902.5644617769099,3615577.62187493,1625.201378144614,2640974.9700357555,-0.7344570257695029,0.013469336548450284,11.039754024903399,0,0.0,0.003761337017522496,-0.6415014534866763,-0.020007787684874333
82,326,0.8199999999999998,1.0138322421976562,0.010211785996558259,0.6297101570972526,0.0020120878084924267,-0.3322045728207135,-0.0077661430075587744,0.9431732398252425,-0.022291607478870993,-0.7069192861204863,0.007350838302116716,1.2638195176200877,-0.0069965287882905024,0.5682194098803302,0.022974548810033676,-3.590395151344641,-0.47384752681661574,55.95152044296265,1.0382946729660034,0.0121464636176824,0.6192556023597717,,,,,,,,0.8443936419787054,0.10790258046805817,0.9397404753676608,0.30398261739284843,108700.0,93500.0,109500.0,90900.0,55.95152044296265,0.5222150346834212,0.29267267496723876,0.29014742293546186,0.029793623696051232,-7.3624874168569585,0.0058467536776441115,7.8928213538769585,55.95152044296265,0.9649510527921401,-2.9473523649288753e-05,0.49997842086440636,0.0,0.0,0.0,1.0,0.0,1.402386978473882e-18,-9.568369488545757e-19,0.5721352631578946,3.368421052631582e-05,-7.947368421052609e-05,0.0,0.0,0.0,55.97158312797546,3.5309998989105225,False,True,False,True,True,False,False,1854.7690321794466,3445698.0359661514,1640.2111069119146,2695156.945356333,1952.6425313299142,3824533.3937591594,1580.5674743788197,2500427.201118393,-0.5244056041007381,0.049667347571086845,10.82950538173711,0,0.0,0.006478966608121405,-0.675383636670268,-0.011921568146906019
83,327,0.8300000000000001,1.0318727330459072,0.009662903130789314,0.6407975058313347,0.003538183126566466,-0.3480756716243749,-0.00936846517663432,0.9374129505952206,-0.028333950913457133,-0.7418543172899985,0.013262321431044874,1.2111729240110627,-0.010688345779768441,0.5737486918531531,0.11362174453885174,-3.8687332552878146,-0.960761945044443,55.962692975997925,1.0382946729660034,0.0121464636176824,0.6192556023597717,,,,,,,,0.8578306309272473,0.082804916435366,0.995042587491768,0.2242597619580927,109900.0,86500.0,119300.0,85700.0,55.962692975997925,0.37595914748796605,0.28986313021014487,0.46135579261041504,-0.11646226349939941,-7.603347045775745,0.04020321400770405,7.720242168208841,55.962692975997925,0.9649510527921401,-2.9473523649288753e-05,0.49997842086440636,0.0,0.0,0.0,1.0,0.0,1.402386978473882e-18,-9.568369488545757e-19,0.5721352631578946,3.368421052631582e-05,-7.947368421052609e-05,0.0,0.0,0.0,55.97158312797546,3.5309998989105225,False,True,False,True,True,False,False,1928.5065331723622,3721494.5163400583,1498.144682799023,2254554.8272824455,2066.18093679715,4284396.56767004,1509.034978161073,2280687.9197087875,-0.3255857749058819,0.11245113931250261,10.804554538737184,0,0.0,0.009209373106225233,-0.7095007568818057,-0.014664289190528928
84,328,0.8399999999999999,1.0472058649972344,0.009036157224424076,0.6496013771315539,0.006569173803888226,-0.3650254852077485,-0.011847000383276718,0.9308989685708652,-0.03972318662680524,-0.779151033448627,0.025431494198792256,1.1342654739247169,-0.011766363265212566,0.5479650756461782,0.40295132887233537,-4.173434107086897,-1.466943076174634,55.97158312797546,1.0590996742248535,0.0105767622590065,0.6273258924484253,,,,,,,,0.7773680976842637,0.24015186331624552,0.8269904117501441,0.2666248981068994,111500.0,81300.0,125300.0,82000.0,55.97158312797546,0.3020630717644022,0.20322429188428415,0.49636610897659594,-0.19035833922296092,-8.034209484450116,0.10059932241445693,7.491213682948695,55.97158312797546,0.9649510527921401,-2.9473523649288753e-05,0.49997842086440636,0.0,0.0,0.0,1.0,0.0,1.402386978473882e-18,-9.568369488545757e-19,0.5721352631578946,3.368421052631582e-05,-7.947368421052609e-05,0.0,0.0,0.0,55.97158312797546,3.5309998989105225,False,True,False,True,True,False,False,1978.8523863679266,3910262.13790436,1377.1857168230888,1877233.3558284407,2150.053989827988,4613725.519806151,1436.5316549325837,2068065.823527038,-0.46812206868787776,0.1196202300285342,10.959165179222154,0,0.0,0.011956174781342421,-0.7467450233739898,-0.022870934650687146
85,329,0.8500000000000001,1.059585588370378,0.008309848175617592,0.6561080142633327,0.011365750934426462,-0.38325431451877906,-0.014663894261863677,0.9234565069961412,-0.056158329380497196,-0.8193692661467011,0.04484041878594002,1.0481687344240551,-0.013450013156324566,0.5101458779082593,0.7764744240299079,-4.429887897958268,-1.7343672668458103,55.98136234283447,1.0590996742248535,0.0105767622590065,0.6273258924484253,,,,,,,,0.5855106618870953,0.5631085905048951,0.5135131873783483,0.381729211462391,114500.0,76300.0,120200.0,78900.0,55.98136234283447,0.4358305659164338,0.09592117792286686,0.3335186589543285,-0.056590845070930415,-8.332449614955697,0.09895496652272773,7.04622759495913,55.98136234283447,0.9649510527921401,-2.9473523649288753e-05,0.49997842086440636,0.0,0.0,0.0,1.0,0.0,1.402386978473882e-18,-9.568369488545757e-19,0.5721352631578946,3.368421052631582e-05,-7.947368421052609e-05,0.0,0.0,0.0,55.97158312797546,3.5309998989105225,False,True,False,True,True,False,False,1969.720813037265,3874841.830893887,1365.2148715998546,1834190.307148448,2119.9688134331623,4483001.687076142,1380.855716311677,1908749.7543609943,-0.5205906619654082,0.17283521663675563,10.98514372808406,0,0.0,0.01745400110873392,-0.7872182370513509,-0.03386346227350494
86,330,0.8600000000000003,1.0693113472255062,0.0074617831485365264,0.6607329853183287,0.01742446187472604,-0.4025748518349786,-0.017334735441180287,0.9150570385203348,-0.07623591930419145,-0.8622365417903165,0.07008483678626944,0.9646188216897148,-0.01892188966201571,0.4721278093275329,0.9632362428614363,-4.564276286300374,-1.5801170583593394,55.99159574508667,1.076190948486328,0.008531367406249,0.6339046955108643,,,,,,,,0.34762451741961287,0.8917715863096403,0.2569618240709378,0.5178608756980048,109100.0,84500.0,112800.0,78300.0,55.99159574508667,0.6852588228270134,-0.018690897223749576,0.03553795415934728,0.1928374118396477,-8.376515252047435,-0.06964259846259341,6.365170298556366,55.99159574508667,0.9809510527921401,-2.9473523649288753e-05,0.49997842086440636,0.0,0.0,0.0,1.0,0.0,1.402386978473882e-18,-9.568369488545757e-19,0.39713526315789477,3.368421052631582e-05,-7.947368421052609e-05,0.0,0.0,0.0,56.01204562187195,3.5360000133514404,False,True,False,True,True,False,False,1884.0118674013042,3557111.1334985,1521.4945149051346,2346303.1043629227,1970.164322337635,3895399.961777611,1351.4666260803663,1816833.1645121786,-0.5642273591088687,0.06387074505957457,10.401226207099747,0,0.0,0.031208601481979962,-0.8280969804893547,-0.03671170133223038
87,331,0.8700000000000001,1.077012651891356,0.006485969866599703,0.664063225751734,0.02349037139601853,-0.4224660957048048,-0.019561932238245223,0.9058630863649991,-0.09750023571406213,-0.9067675358119858,0.09725260219448945,0.8851064368859851,-0.02833133669385264,0.43418538873361856,0.7052213475064802,-4.48227032041125,-1.0327799708510716,56.00136351585388,1.083728313446045,0.0073521193116903,0.636886715888977,,,,,,,,0.17223212404176372,1.0295888657725054,0.21578052289697652,0.6693903692794911,98000.0,104900.0,101000.0,80200.0,56.00136351585388,0.8301667458987585,-0.1412818866785853,-0.25048027572594095,0.3377453349113926,-8.304910172617527,-0.3924673424418822,5.535358814598049,56.00136351585388,0.9809510527921401,-2.9473523649288753e-05,0.49997842086440636,0.0,0.0,0.0,1.0,0.0,1.402386978473882e-18,-9.568369488545757e-19,0.39713526315789477,3.368421052631582e-05,-7.947368421052609e-05,0.0,0.0,0.0,56.01204562187195,3.5360000133514404,False,True,False,True,True,False,False,1741.8550670621944,3046394.5323556266,1794.0953303694653,3280788.0860968903,1771.952753362947,3153567.921883501,1370.252519963985,1860485.2128415734,-0.6937154699874135,-0.17459113831481304,9.979463389242035,0,0.0,0.04782342027651633,-0.8724110660212021,-0.045097260354648755
88,332,0.8800000000000003,1.0833908920570907,0.00540395240253455,0.6666070127093772,0.027939614218554076,-0.4422179772765222,-0.021271675265698998,0.8962199252204618,-0.11684535530076547,-0.9515519745864113,0.12086045950826128,0.8051096648023013,-0.038982988422336565,0.3922033867186765,-0.013196464195088811,-4.1399224008838456,-0.31583656667736687,56.01204562187195,1.0905051231384275,0.0063819522038102,0.6392001509666443,,,,,,,,0.11057328788863623,0.9258973076118272,0.3828555922830141,0.8263510030381749,91200.0,116700.0,94000.0,81300.0,56.01204562187195,0.7799869128508623,-0.2343025832055738,-0.39881725664087686,0.2875655018634967,-8.332245451040212,-0.696566948625111,4.753425459662146,56.01204562187195,0.9809510527921401,-2.9473523649288753e-05,0.49997842086440636,0.0,0.0,0.0,1.0,0.0,1.402386978473882e-18,-9.568369488545757e-19,0.39713526315789477,3.368421052631582e-05,-7.947368421052609e-05,0.0,0.0,0.0,56.01204562187195,3.5360000133514404,False,True,False,True,True,False,False,1588.2607709546464,2522722.865592125,2035.6067547431749,4143695.1054855925,1617.9932124935162,2607479.1729311105,1467.947445727641,2158196.052895738,-0.8596299448825899,-0.35850726796783744,9.65953087539842,0,0.0,0.06181324624106502,-0.9172269628865165,-0.03975212207233814
89,333,0.8900000000000001,1.0890127527345264,0.004264217187482626,0.6686524981090275,0.02939886598574604,-0.46109096794748355,-0.022521769937157606,0.8865797176988106,-0.1311542444605911,-0.9950536869772539,0.1355841923511869,0.7210539268542435,-0.04786128709100865,0.344339842175695,-0.8840682029989348,-3.6249221167232264,0.3063828922354982,56.02250528335571,1.0963603258132937,0.0055766468867659,0.6412301063537598,,,,,,,,0.12512353953536687,0.729494028662094,0.6139767060700272,0.9195620901645974,83300.0,123000.0,88800.0,93800.0,56.02250528335571,0.6661150770765455,-0.25664453505464835,-0.38673470401517096,0.17369366608918024,-8.5889441276959,-0.770009966184374,4.296725914588133,56.02250528335571,0.9909510527921401,-2.9473523649288753e-05,0.49997842086440636,0.0,0.0,0.0,1.0,0.0,1.402386978473882e-18,-9.568369488545757e-19,0.23913526315789474,3.368421052631582e-05,-7.947368421052609e-05,0.0,0.0,0.0,56.04108381271362,3.5360000133514404,False,True,False,True,True,False,False,1458.5290706627666,2117493.7932135584,2123.5181512987765,4474454.911809789,1565.1710284313483,2436687.4905805476,1641.4120016904346,2723043.5920084785,-0.9592980982428982,-0.4495173630631464,9.503128043708152,0,0.0,0.06759473845287559,-0.9595701788533026,-0.04544834765298544
90,334,0.8999999999999999,1.0942034882037035,0.0031298795319370035,0.6702729179532763,0.027313107474620284,-0.4784195579057886,-0.023346470048562447,0.8773959557175888,-0.13800330297305158,-1.0357876308195497,0.13807612964533236,0.6331937507989263,-0.05371008173093748,0.29140355110433963,-1.457647413469287,-3.1036678215938216,0.6875686846492917,56.03119111061096,1.1062138080596924,0.0042428751476109,0.6435204744338989,,,,,,,,0.15784349371656897,0.639194973852047,0.7632229711670924,0.8666546223258533,79400.0,118600.0,90900.0,105300.0,56.03119111061096,0.6453691583426906,-0.235632242540884,-0.2854865214291493,0.15294774735532535,-9.03070674609372,-0.5377713273978001,4.280681754074003,56.03119111061096,0.9909510527921401,-2.9473523649288753e-05,0.49997842086440636,0.0,0.0,0.0,1.0,0.0,1.402386978473882e-18,-9.568369488545757e-19,0.23913526315789474,3.368421052631582e-05,-7.947368421052609e-05,0.0,0.0,0.0,56.04108381271362,3.5360000133514404,False,True,False,True,True,False,False,1359.4915870507207,1843559.2158807097,2066.551500975852,4267170.9959811345,1609.925877461695,2598006.323432228,1823.4739650924473,3337296.3435097067,-0.819247200084654,-0.26894879576997316,9.935778259729197,0,0.0,0.06229987113565351,-1.0023536329634044,-0.04562977226908658
91,335,0.9100000000000001,1.0990425707926232,0.0020610655229771763,0.6714440634654,0.02217568907664429,-0.4936230575571876,-0.023653172590759143,0.8690713683514497,-0.1362309590292881,-1.0723081792369313,0.12805464567139546,0.5439255299774964,-0.057064897246466066,0.234286940036288,-1.4647588917388674,-2.648995040525581,0.8448317365924708,56.04108381271362,1.1062138080596924,0.0042428751476109,0.6435204744338989,,,,,,,,0.19418208118423064,0.7114320512840888,0.7912020578562289,0.6721104827525126,71800.0,111900.0,100000.0,111500.0,56.04108381271362,0.6842347067475244,-0.25482011632870105,-0.18273062812248225,0.19181329576015915,-9.440416076752857,-0.13094925254986764,4.440762542604523,56.04108381271362,0.9909510527921401,-2.9473523649288753e-05,0.49997842086440636,0.0,0.0,0.0,1.0,0.0,1.402386978473882e-18,-9.568369488545757e-19,0.23913526315789474,3.368421052631582e-05,-7.947368421052609e-05,0.0,0.0,0.0,56.04108381271362,3.5360000133514404,False,True,False,True,True,False,False,1281.6704386269605,1647969.6542148083,1984.31571116183,3952950.554727097,1703.6420128735958,2915068.903347833,1919.1731849885884,3666413.313417379,-0.5318269581587614,0.019658820361981022,10.488023894588416,0,0.0,0.04572587783699341,-1.0301004629928188,-0.051329291863288495
92,336,0.9199999999999999,1.1034324423617814,0.0010999711784319343,0.6721859567923956,0.015305879208388322,-0.5061411201120529,-0.023244185734028266,0.8620015106848343,-0.12618471483980276,-1.1030543441881973,0.1081841602952289,0.4547266082393237,-0.05899717028544959,0.1736125427241347,-1.003094921578067,-2.1366143428461117,0.8823702398092489,56.051095962524414,1.1102982759475708,0.003283584723249,0.6438540816307068,,,,,,,,0.2529022708826566,0.827925176122414,0.752226091400064,0.44951573191175687,71300.0,111900.0,102700.0,106800.0,56.051095962524414,0.628829263433344,-0.35953664495156,-0.11699407810830328,0.1364078524459787,-9.633892994782975,0.21967700543431784,4.369966667050906,56.051095962524414,0.9909510527921401,-2.9473523649288753e-05,0.49997842086440636,0.0,0.0,0.0,1.0,0.0,1.402386978473882e-18,-9.568369488545757e-19,0.23913526315789474,3.368421052631582e-05,-7.947368421052609e-05,0.0,0.0,0.0,56.04108381271362,3.5360000133514404,False,True,False,True,True,False,False,1219.8051164757553,1494639.1536859681,1981.6369114814045,3939542.9789330103,1793.1095187591982,3216923.170943942,1882.1825527372803,3536762.181532823,-0.4418223832057362,0.20370969240980655,10.59074026019979,0,0.0,0.026269347804309524,-1.0580756110974567,-0.048671548337277756
